trial_index,mode,correct,reaction_time
1,noise,0,102.35
2,noise,0,1753.704
3,noise,0,136.014
4,noise,1,-1.0
5,noise,1,-1.0
6,noise,1,-1.0
7,noise,1,-1.0
8,noise,0,304.148
9,noise,1,-1.0
10,noise,0,211.996
11,noise,0,679.531
12,noise,1,-1.0
13,noise,1,-1.0
14,noise,1,-1.0
15,noise,0,308.901
16,noise,0,329.994
17,noise,1,-1.0
18,noise,1,-1.0
19,noise,0,187.915
20,noise,0,142.798
21,noise,0,440.369
22,noise,0,178.901
23,noise,1,-1.0
24,noise,1,-1.0
25,noise,1,-1.0
26,noise,1,-1.0
27,go,1,-1.0
28,go,1,349.43
29,go,1,258.429
30,go,1,402.777
31,go,0,-1.0
32,go,1,314.928
33,go,1,240.478
34,go,0,-1.0
35,go,1,226.595
36,go,1,336.883
37,go,1,260.506
38,go,1,325.922
39,go,0,-1.0
40,go,0,-1.0
41,go,0,-1.0
42,go,0,-1.0
43,go,0,-1.0
44,go,0,-1.0
45,go,0,-1.0
46,go,1,415.015
47,go,0,-1.0
48,go,0,-1.0
49,go,0,-1.0
50,go,0,-1.0
51,go,0,-1.0
52,go,0,-1.0
53,go,0,-1.0
54,go,0,-1.0
55,go,0,-1.0
56,go,0,-1.0
57,go,0,-1.0
58,go,0,-1.0
59,go,0,-1.0
60,go,0,-1.0
61,go,0,-1.0
62,go,0,-1.0
63,noise,0,-1.0
64,noise,0,-1.0
65,noise,0,-1.0
66,noise,0,-1.0
67,noise,0,300.502
68,noise,0,139.894
69,noise,0,100.022
70,noise,0,800.2
71,noise,0,-1.0
72,noise,1,-1.0
73,noise,1,-1.0
74,noise,1,-1.0
75,noise,1,-1.0
76,go,1,-1.0
77,go,0,-1.0
78,go,1,326.852
79,go,1,247.227
80,go,0,-1.0
81,go,0,-1.0
82,go,1,356.824
83,go,1,275.968
84,go,1,455.677
85,go,0,-1.0
86,go,0,-1.0
87,go,0,-1.0
88,go,0,-1.0
89,go,0,-1.0
90,go,0,-1.0
91,go,0,-1.0
92,go,0,-1.0
93,go,0,-1.0
94,go,0,-1.0
95,go,0,-1.0
96,go,0,-1.0
97,go,0,-1.0
98,go,0,-1.0
99,go,0,-1.0
100,go,0,-1.0
101,go,0,-1.0
102,go,0,-1.0
103,go,1,171.431
104,go,0,-1.0
105,go,0,-1.0
106,go,0,-1.0
107,go,0,-1.0
108,go,1,210.173
109,go,1,161.56
110,go,0,-1.0
111,go,0,-1.0
112,go,0,-1.0
113,go,0,-1.0
114,go,1,560.557
115,go,1,207.321
116,go,1,322.287
117,go,1,407.571
118,noise,1,279.815
119,noise,1,-1.0
120,noise,0,304.172
121,noise,0,201.497
122,noise,1,-1.0
123,noise,0,366.591
124,noise,1,-1.0
125,noise,1,-1.0
126,noise,1,-1.0
127,noise,0,374.844
128,noise,1,-1.0
129,noise,1,-1.0
130,noise,1,-1.0
131,noise,1,-1.0
132,noise,0,751.002
133,noise,0,-1.0
134,noise,0,-1.0
135,noise,0,-1.0
136,noise,0,-1.0
137,noise,0,-1.0
138,noise,0,-1.0
139,noise,0,-1.0
140,noise,0,-1.0
141,noise,0,-1.0
142,go,0,-1.0
143,go,0,-1.0
144,go,0,-1.0
145,go,0,-1.0
146,go,1,232.12
147,go,0,-1.0
148,go,0,-1.0
149,go,0,-1.0
150,go,1,242.19
151,go,0,-1.0
152,go,0,-1.0
153,go,0,-1.0
154,go,0,-1.0
155,go,1,357.943
156,go,1,194.48
157,go,1,329.879
158,go,1,290.133
159,go,0,-1.0
160,go,0,-1.0
161,go,0,-1.0
162,go,0,-1.0
163,go,0,-1.0
164,go,1,760.237
165,go,1,434.194
166,go,1,451.006
167,go,1,338.015
168,noise,1,150.785
169,noise,0,160.356
170,noise,0,163.682
171,noise,0,132.929
172,noise,0,118.643
173,noise,1,-1.0
174,noise,0,190.539
175,noise,1,-1.0
176,noise,0,294.926
177,noise,0,102.886
178,noise,0,100.474
179,noise,1,-1.0
180,noise,1,-1.0
181,noise,0,210.869
182,noise,1,-1.0
183,noise,0,244.718
184,noise,1,-1.0
185,noise,1,-1.0
186,noise,1,-1.0
187,noise,0,135.175
188,noise,1,-1.0
189,noise,1,-1.0
190,noise,1,-1.0
191,noise,0,132.301
192,noise,1,-1.0
193,noise,1,-1.0
194,noise,1,-1.0
195,noise,1,-1.0
196,go,1,-1.0
197,go,0,-1.0
198,go,0,-1.0
199,go,0,-1.0
200,go,0,-1.0
201,go,0,-1.0
202,go,0,-1.0
203,go,0,-1.0
204,go,0,-1.0
205,noise,0,104.61
206,noise,0,-1.0
207,noise,0,-1.0
208,noise,0,-1.0
209,noise,0,-1.0
210,noise,0,-1.0
211,noise,0,-1.0
212,noise,0,-1.0
213,noise,0,116.839
214,noise,1,-1.0
215,noise,0,140.413
216,noise,1,-1.0
217,noise,0,168.174
218,noise,1,-1.0
219,noise,1,-1.0
220,noise,1,-1.0
221,noise,1,-1.0
222,go,1,-1.0
223,go,0,-1.0
224,go,1,377.001
225,go,0,-1.0
226,go,0,-1.0
227,go,0,-1.0
228,go,0,-1.0
229,go,0,-1.0
230,go,0,-1.0
231,go,0,-1.0
232,go,0,-1.0
233,go,0,-1.0
234,go,0,-1.0
235,go,0,-1.0
236,go,1,219.705
237,go,1,155.506
238,go,1,104.385
239,go,1,240.368
240,noise,1,278.192
241,noise,1,-1.0
242,noise,0,384.318
243,noise,1,-1.0
244,noise,1,-1.0
245,noise,1,-1.0
246,noise,1,-1.0
247,noise,0,-1.0
248,noise,0,-1.0
249,noise,1,-1.0
250,noise,1,-1.0
251,noise,0,-1.0
252,noise,0,-1.0
253,noise,0,-1.0
254,noise,0,-1.0
255,noise,0,-1.0
256,noise,0,-1.0
257,noise,0,-1.0
258,noise,0,-1.0
259,noise,0,-1.0
260,noise,0,-1.0
261,noise,0,-1.0
262,noise,0,-1.0
263,noise,0,-1.0
264,noise,0,-1.0
