trial_index,speed,coherence,direction,side,saccade_rt,saccade_duration,correct,saccade_x,saccade_y,stim_x,stim_y
1,25,0.64,90,left,339.2515182495117,-1.0,0,-1.0,-1.0,-400.3013333333333,0.0
2,25,0.32,90,left,239.00747299194336,-1.0,0,-1.0,-1.0,-400.3013333333333,0.0
3,25,0.64,90,left,-1.0,-1.0,0,-1.0,-1.0,-400.3013333333333,0.0
4,25,0.64,270,left,-1.0,-1.0,0,-1.0,-1.0,-400.3013333333333,0.0
5,25,0.64,270,left,329.8478126525879,0.06009984016418457,1,-378.5999755859375,-1.70001220703125,-400.3013333333333,0.0
6,25,1.0,90,left,-1.0,-1.0,0,-1.0,-1.0,-400.3013333333333,0.0
8,25,0.32,270,left,367.59161949157715,0.05930972099304199,1,-407.9000244140625,4.9000244140625,-400.3013333333333,0.0
9,25,0.16,90,left,-1.0,-1.0,0,-1.0,-1.0,-400.3013333333333,0.0
10,25,0.16,270,left,-1.0,-1.0,0,-1.0,-1.0,-400.3013333333333,0.0
11,25,0.32,270,left,355.1983833312988,0.060057640075683594,1,-398.9000244140625,76.0,-400.3013333333333,0.0
12,25,0.16,270,left,-1.0,-1.0,0,-1.0,-1.0,-400.3013333333333,0.0
13,25,1.0,90,left,431.34212493896484,0.05972623825073242,1,-399.0,101.89999389648438,-400.3013333333333,0.0
14,25,0.32,270,left,0.0,-1.0,0,-1.0,-1.0,-400.3013333333333,0.0
15,25,0.32,270,left,405.4429531097412,-1.0,0,-1.0,-1.0,-400.3013333333333,0.0
16,25,1.0,90,left,230.0422191619873,0.05970025062561035,1,-382.5999755859375,112.0,-400.3013333333333,0.0
17,25,1.0,270,left,215.36922454833984,0.06026029586791992,1,-456.6000061035156,35.20001220703125,-400.3013333333333,0.0
18,25,1.0,270,left,-1.0,-1.0,0,-1.0,-1.0,-400.3013333333333,0.0
19,25,0.32,270,left,379.67634201049805,0.06002688407897949,1,-367.79998779296875,49.79998779296875,-400.3013333333333,0.0
20,25,0.16,90,left,-1.0,-1.0,0,-1.0,-1.0,-400.3013333333333,0.0
21,25,0.64,270,left,-1.0,-1.0,0,-1.0,-1.0,-400.3013333333333,0.0
22,25,0.16,270,left,-1.0,-1.0,0,-1.0,-1.0,-400.3013333333333,0.0
23,25,0.32,90,left,-1.0,-1.0,0,-1.0,-1.0,-400.3013333333333,0.0
24,25,0.32,90,left,-1.0,-1.0,0,-1.0,-1.0,-400.3013333333333,0.0
25,25,0.16,90,left,260.3144645690918,-1.0,0,-1.0,-1.0,-400.3013333333333,0.0
26,25,0.64,90,left,295.0780391693115,0.06058979034423828,1,-377.79998779296875,92.29998779296875,-400.3013333333333,0.0
27,25,0.32,90,left,410.97545623779297,0.06022334098815918,1,-388.79998779296875,49.0,-400.3013333333333,0.0
28,25,0.32,90,left,342.5934314727783,0.06011962890625,1,-373.79998779296875,67.0,-400.3013333333333,0.0
29,25,0.64,270,left,-1.0,-1.0,0,-1.0,-1.0,-400.3013333333333,0.0
30,25,0.16,90,left,393.79143714904785,0.05965375900268555,1,-392.0999755859375,78.20001220703125,-400.3013333333333,0.0
31,25,1.0,270,left,334.9728584289551,0.059485673904418945,1,-399.79998779296875,-3.4000244140625,-400.3013333333333,0.0
32,25,0.64,270,left,-1.0,-1.0,0,-1.0,-1.0,-400.3013333333333,0.0
33,25,1.0,270,left,280.717134475708,0.0607914924621582,1,-436.4000244140625,-33.70001220703125,-400.3013333333333,0.0
34,25,1.0,270,left,-1.0,-1.0,0,-1.0,-1.0,-400.3013333333333,0.0
35,25,0.32,90,left,347.69248962402344,0.05945181846618652,1,-395.79998779296875,80.89999389648438,-400.3013333333333,0.0
36,25,1.0,90,left,380.5513381958008,0.05886435508728027,1,-400.9000244140625,99.29998779296875,-400.3013333333333,0.0
37,25,0.64,90,left,339.8938179016113,0.060038089752197266,1,-400.29998779296875,55.5,-400.3013333333333,0.0
38,25,0.16,90,left,322.00121879577637,0.05972099304199219,1,-405.0999755859375,100.5,-400.3013333333333,0.0
39,25,0.32,90,left,395.1699733734131,0.06000566482543945,1,-371.4000244140625,102.60000610351562,-400.3013333333333,0.0
40,25,0.16,90,left,333.01758766174316,0.05950284004211426,1,-412.0,87.60000610351562,-400.3013333333333,0.0
41,25,0.16,90,left,349.3177890777588,0.05986905097961426,1,-395.9000244140625,115.89999389648438,-400.3013333333333,0.0
42,25,0.32,90,left,218.123197555542,0.06011557579040527,1,-422.0999755859375,102.29998779296875,-400.3013333333333,0.0
43,25,0.16,90,left,328.5346031188965,0.06026864051818848,1,-407.70001220703125,105.39999389648438,-400.3013333333333,0.0
44,25,0.16,90,left,-1.0,-1.0,0,-1.0,-1.0,-400.3013333333333,0.0
45,25,0.16,270,left,261.8756294250488,0.059808969497680664,1,-407.5999755859375,9.29998779296875,-400.3013333333333,0.0
46,25,0.64,90,left,-1.0,-1.0,0,-1.0,-1.0,-400.3013333333333,0.0
47,25,0.16,90,left,250.30112266540527,0.060190439224243164,1,-404.9000244140625,77.79998779296875,-400.3013333333333,0.0
48,25,0.32,270,left,256.3302516937256,0.06057906150817871,1,-404.29998779296875,69.5,-400.3013333333333,0.0
49,25,1.0,90,left,-1.0,-1.0,0,-1.0,-1.0,-400.3013333333333,0.0
50,25,0.16,270,left,273.4222412109375,0.0597081184387207,1,-390.29998779296875,67.89999389648438,-400.3013333333333,0.0
51,25,0.32,270,left,286.87429428100586,0.05983877182006836,1,-387.4000244140625,67.89999389648438,-400.3013333333333,0.0
52,25,0.32,90,left,417.56415367126465,-1.0,0,-1.0,-1.0,-400.3013333333333,0.0
53,25,0.64,90,left,318.4537887573242,0.05953502655029297,1,-401.0,110.29998779296875,-400.3013333333333,0.0
54,25,0.32,270,left,-1.0,-1.0,0,-1.0,-1.0,-400.3013333333333,0.0
55,25,0.32,90,left,344.71607208251953,0.05985403060913086,1,-399.4000244140625,102.89999389648438,-400.3013333333333,0.0
56,25,0.16,90,left,328.86695861816406,0.05955004692077637,1,-409.79998779296875,73.70001220703125,-400.3013333333333,0.0
57,25,1.0,270,left,274.5993137359619,0.06032896041870117,1,-390.79998779296875,-21.79998779296875,-400.3013333333333,0.0
58,25,0.64,270,left,294.31629180908203,0.06094789505004883,1,-416.5999755859375,14.5,-400.3013333333333,0.0
59,25,0.16,90,left,263.51189613342285,0.059454917907714844,1,-349.0,12.5,-400.3013333333333,0.0
60,25,1.0,90,left,328.7315368652344,0.06052827835083008,1,-400.9000244140625,90.20001220703125,-400.3013333333333,0.0
61,25,0.32,90,left,448.09865951538086,0.06076407432556152,1,-415.29998779296875,112.79998779296875,-400.3013333333333,0.0
62,25,0.16,270,left,292.4225330352783,0.06078362464904785,1,-384.9000244140625,77.10000610351562,-400.3013333333333,0.0
63,25,0.16,270,left,400.77829360961914,0.05960273742675781,1,-398.9000244140625,58.0,-400.3013333333333,0.0
64,25,0.16,270,left,289.0338897705078,0.05962228775024414,1,-395.5999755859375,52.20001220703125,-400.3013333333333,0.0
65,25,1.0,270,left,311.33198738098145,0.059517621994018555,1,-426.5,-32.4000244140625,-400.3013333333333,0.0
66,25,1.0,90,left,361.9422912597656,0.05964231491088867,1,-340.0,105.10000610351562,-400.3013333333333,0.0
67,25,0.32,270,left,384.87792015075684,0.05940389633178711,1,-359.5,61.100006103515625,-400.3013333333333,0.0
68,25,1.0,270,left,320.76191902160645,0.06022143363952637,1,-410.5999755859375,-29.5,-400.3013333333333,0.0
69,25,0.32,90,left,-1.0,-1.0,0,-1.0,-1.0,-400.3013333333333,0.0
70,25,0.32,270,left,378.52025032043457,0.0598759651184082,1,-360.70001220703125,32.899993896484375,-400.3013333333333,0.0
71,25,1.0,90,left,392.5783634185791,0.06082439422607422,1,-415.5999755859375,99.5,-400.3013333333333,0.0
72,25,0.16,270,left,333.86945724487305,0.05965089797973633,1,-339.29998779296875,87.70001220703125,-400.3013333333333,0.0
73,25,0.64,90,left,405.7729244232178,0.06041121482849121,1,-381.5999755859375,115.89999389648438,-400.3013333333333,0.0
74,25,0.32,90,left,382.45320320129395,0.06038546562194824,1,-406.29998779296875,78.39999389648438,-400.3013333333333,0.0
75,25,0.16,270,left,399.75810050964355,0.06018424034118652,1,-389.20001220703125,81.70001220703125,-400.3013333333333,0.0
76,25,1.0,270,left,-1.0,-1.0,0,-1.0,-1.0,-400.3013333333333,0.0
77,25,0.32,90,left,334.5980644226074,0.0598292350769043,1,-433.70001220703125,96.29998779296875,-400.3013333333333,0.0
78,25,1.0,90,left,332.9172134399414,0.060048818588256836,1,-403.4000244140625,125.89999389648438,-400.3013333333333,0.0
79,25,0.32,270,left,359.0044975280762,0.05997180938720703,1,-414.79998779296875,49.79998779296875,-400.3013333333333,0.0
80,25,0.32,90,left,267.8799629211426,0.05977463722229004,1,-412.70001220703125,113.29998779296875,-400.3013333333333,0.0
81,25,1.0,270,left,430.82189559936523,0.05974125862121582,1,-392.70001220703125,32.29998779296875,-400.3013333333333,0.0
82,25,0.64,270,left,449.77855682373047,0.06002354621887207,1,-366.5,25.9000244140625,-400.3013333333333,0.0
83,25,0.16,90,left,355.4854393005371,0.06024956703186035,1,-398.79998779296875,102.60000610351562,-400.3013333333333,0.0
84,25,0.32,90,left,335.0634574890137,0.05965137481689453,1,-371.5999755859375,110.79998779296875,-400.3013333333333,0.0
85,25,1.0,90,left,389.7900581359863,0.05954885482788086,1,-388.70001220703125,111.29998779296875,-400.3013333333333,0.0
86,25,0.16,90,left,363.6970520019531,0.059786081314086914,1,-395.29998779296875,85.0,-400.3013333333333,0.0
87,25,1.0,90,left,-1.0,-1.0,0,-1.0,-1.0,-400.3013333333333,0.0
88,25,0.16,270,left,335.7429504394531,0.06015419960021973,1,-407.9000244140625,68.79998779296875,-400.3013333333333,0.0
89,25,0.64,90,left,-1.0,-1.0,0,-1.0,-1.0,-400.3013333333333,0.0
90,25,0.32,270,left,369.66562271118164,0.06002998352050781,1,-381.4000244140625,-25.0999755859375,-400.3013333333333,0.0
91,25,0.16,270,left,-1.0,-1.0,0,-1.0,-1.0,-400.3013333333333,0.0
92,25,1.0,270,left,324.9969482421875,0.05937004089355469,1,-409.0999755859375,-47.0,-400.3013333333333,0.0
93,25,0.64,90,left,340.9862518310547,0.059906959533691406,1,-383.0999755859375,87.70001220703125,-400.3013333333333,0.0
94,25,1.0,270,left,350.32033920288086,0.05961251258850098,1,-404.0,4.9000244140625,-400.3013333333333,0.0
95,25,0.64,90,left,-1.0,-1.0,0,-1.0,-1.0,-400.3013333333333,0.0
96,25,0.16,90,left,-1.0,-1.0,0,-1.0,-1.0,-400.3013333333333,0.0
97,25,0.16,90,left,326.9062042236328,0.05985450744628906,1,-369.5,109.89999389648438,-400.3013333333333,0.0
98,25,0.16,270,left,336.16137504577637,0.06005740165710449,1,-401.29998779296875,52.100006103515625,-400.3013333333333,0.0
99,25,0.64,270,left,354.94494438171387,0.060211181640625,1,-384.0999755859375,3.0,-400.3013333333333,0.0
100,25,0.32,90,left,285.82048416137695,0.05989265441894531,1,-400.20001220703125,92.79998779296875,-400.3013333333333,0.0
101,25,0.64,270,left,304.4929504394531,0.06004142761230469,1,-379.4000244140625,-34.79998779296875,-400.3013333333333,0.0
102,25,0.32,90,left,307.3282241821289,0.060025691986083984,1,-368.5,49.600006103515625,-400.3013333333333,0.0
103,25,0.16,90,left,284.9392890930176,0.05953502655029297,1,-353.0999755859375,76.39999389648438,-400.3013333333333,0.0
104,25,1.0,90,left,305.42588233947754,0.06067085266113281,1,-370.5,119.70001220703125,-400.3013333333333,0.0
105,25,0.32,270,left,309.4215393066406,0.060155630111694336,1,-372.9000244140625,38.70001220703125,-400.3013333333333,0.0
106,25,1.0,270,left,304.48031425476074,0.059539794921875,1,-389.70001220703125,-10.5,-400.3013333333333,0.0
107,25,1.0,270,left,344.3427085876465,0.06002664566040039,1,-376.70001220703125,-29.79998779296875,-400.3013333333333,0.0
108,25,0.32,90,left,-1.0,-1.0,0,-1.0,-1.0,-400.3013333333333,0.0
109,25,0.16,270,left,292.752742767334,0.059789419174194336,1,-362.79998779296875,22.0,-400.3013333333333,0.0
110,25,1.0,270,left,359.4322204589844,0.059909820556640625,1,-362.20001220703125,25.5999755859375,-400.3013333333333,0.0
111,25,0.16,90,left,374.1002082824707,0.060303449630737305,1,-372.20001220703125,87.10000610351562,-400.3013333333333,0.0
112,25,1.0,270,left,-1.0,-1.0,0,-1.0,-1.0,-400.3013333333333,0.0
113,25,0.64,90,left,354.996919631958,0.06000828742980957,1,-399.0999755859375,92.20001220703125,-400.3013333333333,0.0
114,25,0.16,90,left,377.27832794189453,0.05994582176208496,1,-418.20001220703125,97.60000610351562,-400.3013333333333,0.0
115,25,1.0,90,left,348.4153747558594,0.060129404067993164,1,-402.29998779296875,140.29998779296875,-400.3013333333333,0.0
116,25,0.32,270,left,467.8056240081787,0.059192657470703125,1,-365.9000244140625,34.100006103515625,-400.3013333333333,0.0
117,25,0.16,270,left,345.16191482543945,0.05994772911071777,1,-380.20001220703125,71.39999389648438,-400.3013333333333,0.0
118,25,1.0,90,left,-1.0,-1.0,0,-1.0,-1.0,-400.3013333333333,0.0
119,25,0.32,90,left,335.79301834106445,0.06036043167114258,1,-376.20001220703125,34.79998779296875,-400.3013333333333,0.0
120,25,0.32,270,left,329.2887210845947,0.05989265441894531,1,-382.4000244140625,4.0,-400.3013333333333,0.0
121,25,0.16,90,left,-1.0,-1.0,0,-1.0,-1.0,-400.3013333333333,0.0
122,25,0.16,270,left,364.4528388977051,0.06082296371459961,1,-373.29998779296875,71.0,-400.3013333333333,0.0
123,25,1.0,270,left,-1.0,-1.0,0,-1.0,-1.0,-400.3013333333333,0.0
124,25,0.16,270,left,477.02693939208984,0.06003427505493164,1,-406.0999755859375,36.0,-400.3013333333333,0.0
125,25,0.16,270,left,355.7143211364746,0.060059309005737305,1,-400.0999755859375,17.70001220703125,-400.3013333333333,0.0
126,25,0.64,270,left,327.4099826812744,0.060126304626464844,1,-353.9000244140625,14.5,-400.3013333333333,0.0
127,25,0.64,270,left,401.9186496734619,0.05998992919921875,1,-399.9000244140625,37.29998779296875,-400.3013333333333,0.0
128,25,0.64,90,left,377.9621124267578,0.06006908416748047,1,-369.0999755859375,147.39999389648438,-400.3013333333333,0.0
129,25,0.32,270,left,420.20678520202637,0.06014227867126465,1,-383.5,52.29998779296875,-400.3013333333333,0.0
130,25,0.64,270,left,-1.0,-1.0,0,-1.0,-1.0,-400.3013333333333,0.0
131,25,0.32,270,left,-1.0,-1.0,0,-1.0,-1.0,-400.3013333333333,0.0
132,25,0.16,270,left,413.7260913848877,0.0598757266998291,1,-430.29998779296875,38.70001220703125,-400.3013333333333,0.0
133,25,0.32,90,left,354.20870780944824,0.05987668037414551,1,-407.5999755859375,80.0,-400.3013333333333,0.0
134,25,0.32,90,left,-1.0,-1.0,0,-1.0,-1.0,-400.3013333333333,0.0
135,25,1.0,90,left,485.81957817077637,0.05995917320251465,1,-403.20001220703125,117.39999389648438,-400.3013333333333,0.0
136,25,0.64,270,left,338.4103775024414,0.05977988243103027,1,-400.20001220703125,-25.4000244140625,-400.3013333333333,0.0
137,25,0.32,270,left,266.1557197570801,0.059761762619018555,1,-386.29998779296875,32.0,-400.3013333333333,0.0
138,25,0.64,270,left,390.7167911529541,0.05998539924621582,1,-412.0999755859375,8.5999755859375,-400.3013333333333,0.0
139,25,0.64,90,left,422.87492752075195,0.05998635292053223,1,-385.79998779296875,134.10000610351562,-400.3013333333333,0.0
140,25,0.16,270,left,351.8393039703369,-1.0,0,-1.0,-1.0,-400.3013333333333,0.0
141,25,0.16,270,left,-1.0,-1.0,0,-1.0,-1.0,-400.3013333333333,0.0
142,25,0.64,90,left,275.2354145050049,0.060164451599121094,1,-404.70001220703125,76.60000610351562,-400.3013333333333,0.0
143,25,0.16,90,left,360.07094383239746,0.060926198959350586,1,-376.0999755859375,68.70001220703125,-400.3013333333333,0.0
144,25,1.0,270,left,-1.0,-1.0,0,-1.0,-1.0,-400.3013333333333,0.0
145,25,0.16,90,left,360.04137992858887,0.0597689151763916,1,-356.29998779296875,86.29998779296875,-400.3013333333333,0.0
146,25,0.32,270,left,444.83280181884766,0.05961012840270996,1,-403.4000244140625,-24.0999755859375,-400.3013333333333,0.0
147,25,0.32,90,left,398.70643615722656,0.059828758239746094,1,-349.29998779296875,116.29998779296875,-400.3013333333333,0.0
148,25,0.64,90,left,377.6435852050781,0.0598905086517334,1,-303.79998779296875,101.29998779296875,-400.3013333333333,0.0
149,25,0.16,90,left,372.94650077819824,0.06029915809631348,1,-405.4000244140625,103.0,-400.3013333333333,0.0
150,25,0.32,270,left,401.97205543518066,0.06009197235107422,1,-421.0999755859375,80.0,-400.3013333333333,0.0
151,25,1.0,90,left,-1.0,-1.0,0,-1.0,-1.0,-400.3013333333333,0.0
152,25,1.0,90,left,348.0966091156006,0.059563636779785156,1,-390.5,152.79998779296875,-400.3013333333333,0.0
153,25,0.16,270,left,318.27449798583984,0.06010270118713379,1,-417.9000244140625,90.0,-400.3013333333333,0.0
154,25,1.0,270,left,-1.0,-1.0,0,-1.0,-1.0,-400.3013333333333,0.0
155,25,0.32,90,left,-1.0,-1.0,0,-1.0,-1.0,-400.3013333333333,0.0
156,25,0.64,90,left,319.6146488189697,0.05999016761779785,1,-393.5,81.29998779296875,-400.3013333333333,0.0
157,25,0.32,90,left,-1.0,-1.0,0,-1.0,-1.0,-400.3013333333333,0.0
158,25,0.16,90,left,325.5035877227783,0.06109142303466797,1,-392.5999755859375,65.89999389648438,-400.3013333333333,0.0
159,25,0.64,270,left,-1.0,-1.0,0,-1.0,-1.0,-400.3013333333333,0.0
160,25,0.64,90,left,494.2893981933594,0.059822797775268555,1,-411.0999755859375,73.10000610351562,-400.3013333333333,0.0
161,25,0.16,90,left,339.69736099243164,0.05960392951965332,1,-378.4000244140625,71.20001220703125,-400.3013333333333,0.0
162,25,0.16,90,left,376.30772590637207,0.059777021408081055,1,-373.20001220703125,76.89999389648438,-400.3013333333333,0.0
163,25,1.0,270,left,367.94567108154297,0.06100344657897949,1,-406.0,-41.0,-400.3013333333333,0.0
164,25,0.32,270,left,301.2657165527344,-1.0,0,-1.0,-1.0,-400.3013333333333,0.0
165,25,0.16,90,left,313.9369487762451,0.05991196632385254,1,-399.29998779296875,81.5,-400.3013333333333,0.0
166,25,1.0,90,left,345.77417373657227,0.059493303298950195,1,-365.0,135.39999389648438,-400.3013333333333,0.0
167,25,1.0,90,left,312.0548725128174,0.059610605239868164,1,-393.20001220703125,115.79998779296875,-400.3013333333333,0.0
168,25,0.32,270,left,387.21656799316406,0.05941414833068848,1,-414.0999755859375,-16.70001220703125,-400.3013333333333,0.0
169,25,0.64,90,left,344.7725772857666,0.060065507888793945,1,-390.5,121.70001220703125,-400.3013333333333,0.0
170,25,0.16,270,left,409.9576473236084,0.059789180755615234,1,-385.9000244140625,45.100006103515625,-400.3013333333333,0.0
171,25,0.64,270,left,371.2127208709717,0.06012892723083496,1,-408.70001220703125,-36.9000244140625,-400.3013333333333,0.0
172,25,0.64,270,left,326.17926597595215,0.05951213836669922,1,-394.70001220703125,-10.9000244140625,-400.3013333333333,0.0
173,25,0.16,90,left,305.3863048553467,0.06033182144165039,1,-353.29998779296875,102.10000610351562,-400.3013333333333,0.0
174,25,0.32,270,left,339.11681175231934,0.05994772911071777,1,-359.20001220703125,56.79998779296875,-400.3013333333333,0.0
175,25,0.16,270,left,337.45431900024414,0.06031537055969238,1,-343.4000244140625,108.29998779296875,-400.3013333333333,0.0
176,25,0.64,90,left,333.6052894592285,0.05994439125061035,1,-373.5999755859375,142.39999389648438,-400.3013333333333,0.0
177,25,0.32,270,left,314.7456645965576,0.0605320930480957,1,-360.9000244140625,24.79998779296875,-400.3013333333333,0.0
178,25,0.32,90,left,323.79627227783203,0.05972719192504883,1,-366.79998779296875,88.29998779296875,-400.3013333333333,0.0
179,25,0.16,90,left,382.2283744812012,0.05938863754272461,1,-461.8999938964844,86.39999389648438,-400.3013333333333,0.0
180,25,0.16,90,left,411.0991954803467,0.05968022346496582,1,-381.9000244140625,74.60000610351562,-400.3013333333333,0.0
181,25,1.0,90,left,355.70549964904785,0.059850215911865234,1,-396.5999755859375,129.5,-400.3013333333333,0.0
182,25,1.0,270,left,265.3830051422119,0.0601801872253418,1,-390.0,15.0,-400.3013333333333,0.0
183,25,0.64,90,left,371.2196350097656,0.060599327087402344,1,-386.70001220703125,127.89999389648438,-400.3013333333333,0.0
184,25,1.0,90,left,430.2222728729248,0.05957341194152832,1,-366.79998779296875,86.70001220703125,-400.3013333333333,0.0
185,25,0.32,90,left,487.45083808898926,0.060559749603271484,1,-392.70001220703125,49.399993896484375,-400.3013333333333,0.0
186,25,0.16,90,left,476.9759178161621,0.060285329818725586,1,-392.70001220703125,87.29998779296875,-400.3013333333333,0.0
187,25,0.64,270,left,-1.0,-1.0,0,-1.0,-1.0,-400.3013333333333,0.0
188,25,1.0,270,left,262.8798484802246,0.05974245071411133,1,-391.79998779296875,23.29998779296875,-400.3013333333333,0.0
189,25,1.0,90,left,326.31683349609375,0.059987783432006836,1,-392.20001220703125,112.60000610351562,-400.3013333333333,0.0
190,25,1.0,90,left,285.48479080200195,0.059967756271362305,1,-395.70001220703125,138.39999389648438,-400.3013333333333,0.0
191,25,0.16,90,left,312.0603561401367,0.060425519943237305,1,-416.5999755859375,109.70001220703125,-400.3013333333333,0.0
192,25,0.32,270,left,326.86471939086914,0.0962228775024414,1,-369.0,90.5,-400.3013333333333,0.0
193,25,0.16,90,left,-1.0,-1.0,0,-1.0,-1.0,-400.3013333333333,0.0
194,25,0.32,270,left,430.8466911315918,0.06019997596740723,1,-377.20001220703125,56.600006103515625,-400.3013333333333,0.0
195,25,0.64,90,left,226.48024559020996,0.06005597114562988,1,-410.4000244140625,134.5,-400.3013333333333,0.0
196,25,0.32,270,left,260.9410285949707,0.06006789207458496,1,-387.4000244140625,52.399993896484375,-400.3013333333333,0.0
197,25,0.32,90,left,325.02102851867676,0.06005263328552246,1,-414.70001220703125,105.0,-400.3013333333333,0.0
198,25,1.0,270,left,338.897705078125,0.059954166412353516,1,-396.5,-25.5,-400.3013333333333,0.0
199,25,0.32,90,left,352.0159721374512,0.06025266647338867,1,-370.9000244140625,67.79998779296875,-400.3013333333333,0.0
200,25,0.32,90,left,415.0428771972656,0.05985426902770996,1,-362.4000244140625,112.29998779296875,-400.3013333333333,0.0
201,25,1.0,90,left,290.5721664428711,0.06004977226257324,1,-397.20001220703125,114.0,-400.3013333333333,0.0
202,25,1.0,90,left,282.5305461883545,0.06010699272155762,1,-427.70001220703125,79.79998779296875,-400.3013333333333,0.0
203,25,1.0,90,left,344.88964080810547,0.060103654861450195,1,-419.0,113.39999389648438,-400.3013333333333,0.0
204,25,1.0,270,left,263.5326385498047,0.059786081314086914,1,-412.9000244140625,-18.29998779296875,-400.3013333333333,0.0
205,25,0.64,270,left,306.1962127685547,0.059984445571899414,1,-406.9000244140625,-22.4000244140625,-400.3013333333333,0.0
206,25,0.32,90,left,324.67007637023926,0.060219764709472656,1,-419.5,100.10000610351562,-400.3013333333333,0.0
207,25,0.32,270,left,324.5360851287842,0.06007075309753418,1,-383.9000244140625,27.79998779296875,-400.3013333333333,0.0
208,25,1.0,270,left,316.5285587310791,0.06001472473144531,1,-382.0999755859375,-40.5999755859375,-400.3013333333333,0.0
209,25,0.32,270,left,327.48866081237793,0.06006765365600586,1,-408.29998779296875,16.5999755859375,-400.3013333333333,0.0
210,25,0.16,270,left,265.9754753112793,0.06015729904174805,1,-384.4000244140625,62.0,-400.3013333333333,0.0
211,25,1.0,90,left,307.3687553405762,0.059261322021484375,1,-391.9000244140625,90.79998779296875,-400.3013333333333,0.0
212,25,0.64,90,left,261.54279708862305,0.05995345115661621,1,-382.70001220703125,133.29998779296875,-400.3013333333333,0.0
213,25,1.0,270,left,313.8926029205322,0.06009316444396973,1,-376.0999755859375,46.29998779296875,-400.3013333333333,0.0
214,25,0.64,90,left,313.8453960418701,0.060088396072387695,1,-386.20001220703125,88.79998779296875,-400.3013333333333,0.0
215,25,0.64,270,left,271.19946479797363,0.05976104736328125,1,-401.70001220703125,52.70001220703125,-400.3013333333333,0.0
216,25,0.64,270,left,240.03171920776367,0.05997920036315918,1,-418.0,61.70001220703125,-400.3013333333333,0.0
217,25,0.16,270,left,440.5641555786133,0.05977892875671387,1,-383.5999755859375,-25.5,-400.3013333333333,0.0
218,25,0.32,270,left,303.3468723297119,0.05957913398742676,1,-387.4000244140625,77.10000610351562,-400.3013333333333,0.0
219,25,1.0,90,left,392.5590515136719,0.06003928184509277,1,-413.5999755859375,128.10000610351562,-400.3013333333333,0.0
220,25,0.32,90,left,369.8406219482422,0.0598299503326416,1,-418.5999755859375,67.89999389648438,-400.3013333333333,0.0
221,25,1.0,270,left,217.1492576599121,0.060329437255859375,1,-389.29998779296875,8.4000244140625,-400.3013333333333,0.0
222,25,0.64,270,left,297.499418258667,0.05999922752380371,1,-372.0999755859375,53.5,-400.3013333333333,0.0
223,25,0.32,90,left,267.6365375518799,0.05991339683532715,1,-368.29998779296875,80.89999389648438,-400.3013333333333,0.0
224,25,0.16,90,left,286.724328994751,0.060088157653808594,1,-396.79998779296875,99.89999389648438,-400.3013333333333,0.0
225,25,0.64,90,left,346.77600860595703,0.06027960777282715,1,-397.70001220703125,126.39999389648438,-400.3013333333333,0.0
226,25,0.16,90,left,339.2481803894043,0.05999326705932617,1,-449.8999938964844,91.60000610351562,-400.3013333333333,0.0
227,25,0.64,90,left,414.8285388946533,0.059918880462646484,1,-406.79998779296875,148.10000610351562,-400.3013333333333,0.0
228,25,0.64,270,left,310.1353645324707,0.05994987487792969,1,-416.20001220703125,37.899993896484375,-400.3013333333333,0.0
229,25,0.16,270,left,300.88329315185547,0.0601506233215332,1,-387.79998779296875,67.79998779296875,-400.3013333333333,0.0
230,25,0.64,90,left,418.1027412414551,0.059996843338012695,1,-409.0,92.70001220703125,-400.3013333333333,0.0
231,25,0.32,90,left,346.48990631103516,0.05991196632385254,1,-417.5999755859375,92.5,-400.3013333333333,0.0
232,25,0.32,270,left,211.26413345336914,0.06011223793029785,1,-402.29998779296875,95.39999389648438,-400.3013333333333,0.0
233,25,0.16,90,left,329.4854164123535,0.060373544692993164,1,-401.9000244140625,117.20001220703125,-400.3013333333333,0.0
234,25,0.16,90,left,307.37829208374023,0.05985903739929199,1,-380.79998779296875,77.10000610351562,-400.3013333333333,0.0
235,25,0.64,270,left,290.0264263153076,0.06012296676635742,1,-407.9000244140625,40.20001220703125,-400.3013333333333,0.0
236,25,0.64,270,left,404.7107696533203,0.06021380424499512,1,-408.5999755859375,55.5,-400.3013333333333,0.0
237,25,0.32,270,left,323.38595390319824,0.059641122817993164,1,-384.5999755859375,67.79998779296875,-400.3013333333333,0.0
238,25,1.0,90,left,246.98424339294434,0.06025338172912598,1,-414.0,130.70001220703125,-400.3013333333333,0.0
239,25,0.16,90,left,254.73952293395996,0.06036734580993652,1,-404.0,68.79998779296875,-400.3013333333333,0.0
240,25,0.32,270,left,235.77427864074707,0.06000471115112305,1,-412.5,30.20001220703125,-400.3013333333333,0.0
241,25,0.32,270,left,238.67106437683105,0.060083866119384766,1,-412.4000244140625,-4.70001220703125,-400.3013333333333,0.0
242,25,0.64,270,left,190.7820701599121,-1.0,0,-1.0,-1.0,-400.3013333333333,0.0
243,25,0.32,90,left,350.8429527282715,0.06018328666687012,1,-401.5999755859375,89.20001220703125,-400.3013333333333,0.0
244,25,0.64,90,left,288.2096767425537,0.060312747955322266,1,-388.5,142.79998779296875,-400.3013333333333,0.0
245,25,0.16,90,left,323.6353397369385,0.060054779052734375,1,-376.79998779296875,77.29998779296875,-400.3013333333333,0.0
246,25,0.16,90,left,-1.0,-1.0,0,-1.0,-1.0,-400.3013333333333,0.0
247,25,1.0,270,left,275.036096572876,0.05967974662780762,1,-398.4000244140625,-49.5,-400.3013333333333,0.0
248,25,1.0,90,left,320.4607963562012,0.06010723114013672,1,-385.79998779296875,100.10000610351562,-400.3013333333333,0.0
249,25,0.32,270,left,320.18136978149414,0.060221195220947266,1,-399.9000244140625,-5.79998779296875,-400.3013333333333,0.0
250,25,1.0,270,left,303.47275733947754,0.060028791427612305,1,-394.5,-28.5999755859375,-400.3013333333333,0.0
251,25,1.0,90,left,208.35161209106445,0.05945777893066406,1,-389.79998779296875,97.20001220703125,-400.3013333333333,0.0
252,25,0.64,270,left,-1.0,-1.0,0,-1.0,-1.0,-400.3013333333333,0.0
253,25,1.0,90,left,249.0382194519043,0.060480594635009766,1,-408.0999755859375,90.70001220703125,-400.3013333333333,0.0
254,25,0.32,270,left,347.46837615966797,0.06007862091064453,1,-392.4000244140625,-34.0,-400.3013333333333,0.0
255,25,0.32,270,left,357.79404640197754,0.05986928939819336,1,-387.0999755859375,7.79998779296875,-400.3013333333333,0.0
