trial_index,speed,coherence,direction,side,saccade_rt,saccade_duration,correct,saccade_x,saccade_y,stim_x,stim_y
1,25,0.35,270,left,330.29627799987793,0.07024121284484863,1,-375.5999755859375,-45.79998779296875,-400.3013333333333,0.0
2,25,0.0,90,left,223.907470703125,0.05996537208557129,1,-352.0,-13.0,-400.3013333333333,0.0
3,25,0.6,90,left,248.71516227722168,0.07001113891601562,1,-342.0,39.20001220703125,-400.3013333333333,0.0
4,25,0.2,270,left,240.76437950134277,0.0704491138458252,1,-379.20001220703125,34.0,-400.3013333333333,0.0
5,25,0.6,270,left,279.2620658874512,0.07018041610717773,1,-381.0999755859375,-50.9000244140625,-400.3013333333333,0.0
6,25,0.2,90,left,187.73484230041504,0.07008242607116699,1,-388.9000244140625,37.29998779296875,-400.3013333333333,0.0
7,25,0.35,90,left,201.31564140319824,0.06964850425720215,1,-350.79998779296875,14.29998779296875,-400.3013333333333,0.0
8,25,0.6,270,left,211.2720012664795,0.07047557830810547,1,-344.0,-8.5,-400.3013333333333,0.0
9,25,0.6,90,left,292.64378547668457,0.06995558738708496,1,-382.5,21.0999755859375,-400.3013333333333,0.0
10,25,0.2,90,left,192.34132766723633,0.06950736045837402,1,-352.5,25.70001220703125,-400.3013333333333,0.0
11,25,0.2,90,left,222.45502471923828,0.07054758071899414,1,-363.0999755859375,18.79998779296875,-400.3013333333333,0.0
12,25,0.2,270,left,342.3430919647217,0.07020878791809082,1,-342.29998779296875,5.9000244140625,-400.3013333333333,0.0
13,25,0.2,270,left,295.75586318969727,0.07000184059143066,1,-378.9000244140625,22.20001220703125,-400.3013333333333,0.0
14,25,0.0,270,left,210.88695526123047,0.07080531120300293,1,-367.4000244140625,30.100006103515625,-400.3013333333333,0.0
15,25,0.35,270,left,221.03428840637207,0.07023239135742188,1,-377.5999755859375,-9.9000244140625,-400.3013333333333,0.0
16,25,0.1,90,left,221.07696533203125,0.06992363929748535,1,-371.5999755859375,48.100006103515625,-400.3013333333333,0.0
17,25,0.2,90,left,276.05485916137695,0.07013964653015137,1,-355.0,44.600006103515625,-400.3013333333333,0.0
18,25,0.35,90,left,276.1516571044922,0.07054567337036133,1,-385.5,49.100006103515625,-400.3013333333333,0.0
19,25,0.1,270,left,10.625362396240234,-1.0,0,-1.0,-1.0,-400.3013333333333,0.0
20,25,0.1,270,left,257.3566436767578,0.07129859924316406,1,-352.79998779296875,-9.0,-400.3013333333333,0.0
21,25,0.35,270,left,284.1382026672363,0.06931495666503906,1,-356.0,11.9000244140625,-400.3013333333333,0.0
22,25,0.35,270,left,499.7444152832031,0.07033920288085938,1,-334.4000244140625,16.0,-400.3013333333333,0.0
23,25,0.1,270,left,299.28112030029297,0.06985998153686523,1,-362.5999755859375,-26.70001220703125,-400.3013333333333,0.0
24,25,0.0,90,left,220.4744815826416,0.0704653263092041,1,-428.29998779296875,57.20001220703125,-400.3013333333333,0.0
25,25,0.6,270,left,249.57680702209473,0.07036042213439941,1,-416.79998779296875,-68.0,-400.3013333333333,0.0
26,25,0.35,90,left,267.3678398132324,0.07037496566772461,1,-391.5,28.29998779296875,-400.3013333333333,0.0
27,25,0.0,90,left,237.9589080810547,0.07010102272033691,1,-344.79998779296875,-1.20001220703125,-400.3013333333333,0.0
28,25,0.6,270,left,227.3561954498291,0.07087349891662598,1,-320.0999755859375,-58.5999755859375,-400.3013333333333,0.0
29,25,0.0,90,left,254.33039665222168,0.07019805908203125,1,-371.0999755859375,22.70001220703125,-400.3013333333333,0.0
30,25,0.1,270,left,267.71998405456543,0.07049894332885742,1,-350.20001220703125,-26.4000244140625,-400.3013333333333,0.0
31,25,0.2,270,left,261.9180679321289,0.06981539726257324,1,-339.4000244140625,-83.20001220703125,-400.3013333333333,0.0
32,25,0.0,90,left,275.2032279968262,0.06975746154785156,1,-410.9000244140625,-43.20001220703125,-400.3013333333333,0.0
33,25,0.35,90,left,271.0251808166504,0.06999015808105469,1,-332.5,11.5999755859375,-400.3013333333333,0.0
34,25,0.0,270,left,295.7770824432373,0.07036304473876953,1,-322.29998779296875,46.100006103515625,-400.3013333333333,0.0
35,25,0.2,90,left,228.43146324157715,0.07051539421081543,1,-358.20001220703125,16.0999755859375,-400.3013333333333,0.0
36,25,0.1,270,left,-1.0,-1.0,0,-1.0,-1.0,-400.3013333333333,0.0
37,25,0.35,270,left,-1.0,-1.0,0,-1.0,-1.0,-400.3013333333333,0.0
38,25,0.0,270,left,310.95218658447266,0.07001662254333496,1,-380.20001220703125,14.70001220703125,-400.3013333333333,0.0
39,25,0.0,90,left,236.29188537597656,0.07009172439575195,1,-345.79998779296875,0.5999755859375,-400.3013333333333,0.0
40,25,0.0,90,left,294.4750785827637,0.0709080696105957,1,-343.9000244140625,4.5,-400.3013333333333,0.0
41,25,0.6,270,left,191.7862892150879,0.069549560546875,1,-355.5999755859375,-18.9000244140625,-400.3013333333333,0.0
42,25,0.6,270,left,223.01316261291504,0.07023191452026367,1,-381.5999755859375,-4.0,-400.3013333333333,0.0
43,25,0.2,90,left,296.9954013824463,0.0692293643951416,1,-348.29998779296875,40.29998779296875,-400.3013333333333,0.0
44,25,0.6,90,left,274.31797981262207,0.0693967342376709,1,-345.29998779296875,-19.4000244140625,-400.3013333333333,0.0
45,25,0.0,270,left,288.85579109191895,0.06970906257629395,1,-366.4000244140625,2.4000244140625,-400.3013333333333,0.0
46,25,0.2,270,left,296.63896560668945,0.06982016563415527,1,-333.0999755859375,-13.29998779296875,-400.3013333333333,0.0
47,25,0.1,270,left,284.1370105743408,0.07001423835754395,1,-359.0,16.9000244140625,-400.3013333333333,0.0
48,25,0.2,270,left,322.74532318115234,0.07028031349182129,1,-348.0,34.100006103515625,-400.3013333333333,0.0
49,25,0.35,270,left,224.34306144714355,0.06951117515563965,1,-363.0,4.79998779296875,-400.3013333333333,0.0
50,25,0.35,90,left,326.0040283203125,0.07037663459777832,1,-310.0999755859375,11.9000244140625,-400.3013333333333,0.0
51,25,0.6,270,left,295.7625389099121,0.07052087783813477,1,-362.5,-34.0999755859375,-400.3013333333333,0.0
52,25,0.6,270,left,282.367467880249,0.07000422477722168,1,-333.79998779296875,24.0999755859375,-400.3013333333333,0.0
53,25,0.2,270,left,265.9480571746826,0.07004380226135254,1,-317.0,17.4000244140625,-400.3013333333333,0.0
54,25,0.35,90,left,377.7930736541748,0.07064700126647949,1,-343.79998779296875,44.600006103515625,-400.3013333333333,0.0
55,25,0.35,90,left,192.45648384094238,0.06956744194030762,1,-366.29998779296875,1.79998779296875,-400.3013333333333,0.0
56,25,0.6,270,left,226.6371250152588,0.07004308700561523,1,-370.5,-106.79998779296875,-400.3013333333333,0.0
57,25,0.1,90,left,263.98277282714844,0.06986260414123535,1,-378.9000244140625,53.29998779296875,-400.3013333333333,0.0
58,25,0.1,90,left,468.39404106140137,0.06989789009094238,1,-373.70001220703125,-51.70001220703125,-400.3013333333333,0.0
59,25,0.2,270,left,223.54698181152344,0.06998920440673828,1,-395.79998779296875,12.79998779296875,-400.3013333333333,0.0
60,25,0.2,90,left,-1.0,-1.0,0,-1.0,-1.0,-400.3013333333333,0.0
61,25,0.0,90,left,145.76172828674316,-1.0,0,-1.0,-1.0,-400.3013333333333,0.0
62,25,0.2,90,left,214.77723121643066,0.07033634185791016,1,-325.5999755859375,73.0,-400.3013333333333,0.0
63,25,0.2,90,left,323.9552974700928,0.06957411766052246,1,-366.79998779296875,21.20001220703125,-400.3013333333333,0.0
64,25,0.35,90,left,454.9565315246582,0.06997942924499512,1,-355.0,61.100006103515625,-400.3013333333333,0.0
65,25,0.35,90,left,312.0396137237549,0.07051467895507812,1,-362.5,56.600006103515625,-400.3013333333333,0.0
66,25,0.2,270,left,241.86062812805176,0.07029008865356445,1,-364.4000244140625,-15.20001220703125,-400.3013333333333,0.0
67,25,0.35,90,left,245.84150314331055,0.06963324546813965,1,-382.9000244140625,30.29998779296875,-400.3013333333333,0.0
68,25,0.1,90,left,271.41737937927246,0.06999611854553223,1,-366.9000244140625,19.4000244140625,-400.3013333333333,0.0
69,25,0.2,270,left,238.69633674621582,0.06991076469421387,1,-329.0,12.5,-400.3013333333333,0.0
70,25,0.6,90,left,278.4712314605713,0.0698857307434082,1,-332.20001220703125,76.89999389648438,-400.3013333333333,0.0
71,25,0.0,90,left,272.31359481811523,0.06991958618164062,1,-351.0999755859375,-70.70001220703125,-400.3013333333333,0.0
72,25,0.35,90,left,232.35630989074707,0.07027792930603027,1,-391.79998779296875,48.29998779296875,-400.3013333333333,0.0
73,25,0.6,270,left,191.7126178741455,0.06990814208984375,1,-414.70001220703125,31.0,-400.3013333333333,0.0
74,25,0.2,270,left,236.13286018371582,0.06981086730957031,1,-386.0999755859375,8.4000244140625,-400.3013333333333,0.0
75,25,0.0,270,left,281.4633846282959,0.07028603553771973,1,-407.4000244140625,-24.0,-400.3013333333333,0.0
76,25,0.2,90,left,209.24806594848633,0.07074904441833496,1,-396.9000244140625,40.100006103515625,-400.3013333333333,0.0
77,25,0.1,90,left,300.9970188140869,0.06943845748901367,1,-394.20001220703125,16.5999755859375,-400.3013333333333,0.0
78,25,0.0,270,left,301.2096881866455,0.06998014450073242,1,-427.4000244140625,13.70001220703125,-400.3013333333333,0.0
79,25,0.35,270,left,309.70239639282227,0.06884026527404785,1,-333.9000244140625,-87.0999755859375,-400.3013333333333,0.0
80,25,0.1,90,left,246.8092441558838,0.06888651847839355,1,-325.0999755859375,-15.5,-400.3013333333333,0.0
81,25,0.35,270,left,277.101993560791,0.07014751434326172,1,-410.70001220703125,-44.70001220703125,-400.3013333333333,0.0
82,25,0.6,90,left,253.5855770111084,0.06975674629211426,1,-332.79998779296875,57.399993896484375,-400.3013333333333,0.0
83,25,0.35,270,left,273.9834785461426,0.0705106258392334,1,-266.4000244140625,-49.5999755859375,-400.3013333333333,0.0
84,25,0.1,270,left,333.56213569641113,0.07096028327941895,1,-340.70001220703125,33.29998779296875,-400.3013333333333,0.0
85,25,0.2,270,left,419.6596145629883,0.06986188888549805,1,-381.20001220703125,-20.29998779296875,-400.3013333333333,0.0
86,25,0.1,90,left,288.862943649292,0.06960797309875488,1,-342.29998779296875,-16.0999755859375,-400.3013333333333,0.0
87,25,0.2,270,left,291.5623188018799,0.07026386260986328,1,-346.4000244140625,-12.4000244140625,-400.3013333333333,0.0
88,25,0.6,270,left,-1.0,-1.0,0,-1.0,-1.0,-400.3013333333333,0.0
89,25,0.6,270,left,287.68301010131836,0.07085394859313965,1,-379.0,-41.0999755859375,-400.3013333333333,0.0
90,25,0.35,90,left,359.8017692565918,0.06996893882751465,1,-354.9000244140625,1.5,-400.3013333333333,0.0
91,25,0.0,270,left,368.8497543334961,0.07026958465576172,1,-399.79998779296875,54.5,-400.3013333333333,0.0
92,25,0.2,270,left,401.7975330352783,0.06986808776855469,1,-364.0999755859375,-28.0999755859375,-400.3013333333333,0.0
93,25,0.35,270,left,291.0456657409668,0.0700984001159668,1,-348.0999755859375,-14.4000244140625,-400.3013333333333,0.0
94,25,0.2,90,left,-1.0,-1.0,0,-1.0,-1.0,-400.3013333333333,0.0
95,25,0.0,270,left,290.0264263153076,-1.0,0,-1.0,-1.0,-400.3013333333333,0.0
96,25,0.1,270,left,303.1008243560791,0.07060098648071289,1,-349.20001220703125,16.4000244140625,-400.3013333333333,0.0
97,25,0.1,90,left,223.84929656982422,0.0702049732208252,1,-391.0,55.5,-400.3013333333333,0.0
98,25,0.6,270,left,229.37488555908203,0.06886649131774902,1,-357.0,-11.4000244140625,-400.3013333333333,0.0
99,25,0.0,90,left,291.2137508392334,0.07018828392028809,1,-366.4000244140625,16.29998779296875,-400.3013333333333,0.0
100,25,0.0,90,left,315.8679008483887,0.0694124698638916,1,-358.9000244140625,30.79998779296875,-400.3013333333333,0.0
101,25,0.0,90,left,290.72070121765137,0.06987762451171875,1,-333.20001220703125,33.399993896484375,-400.3013333333333,0.0
102,25,0.2,270,left,291.4891242980957,0.06998920440673828,1,-368.0999755859375,40.899993896484375,-400.3013333333333,0.0
103,25,0.6,270,left,181.304931640625,0.06984758377075195,1,-347.70001220703125,-1.29998779296875,-400.3013333333333,0.0
104,25,0.6,90,left,151.36957168579102,0.07045483589172363,1,-362.9000244140625,18.70001220703125,-400.3013333333333,0.0
105,25,0.6,90,left,247.36499786376953,0.06975984573364258,1,-330.4000244140625,49.70001220703125,-400.3013333333333,0.0
106,25,0.0,90,left,242.16485023498535,0.07067275047302246,1,-347.0,31.20001220703125,-400.3013333333333,0.0
107,25,0.0,270,left,307.50060081481934,0.06998085975646973,1,-374.5,30.29998779296875,-400.3013333333333,0.0
108,25,0.35,270,left,464.8723602294922,0.08177423477172852,1,-377.4000244140625,5.0,-400.3013333333333,0.0
