trial_index,trial_start_time,speed,coherence,direction,saccade_rt,saccade_duration,correct,saccade_x,saccade_y,stim_x,stim_y,fix_x,fix_y,fix_onset,stim_onset,stim_offset,saccade_onset
1,1758903383.7077637,25,0.2,90,241.9117308745064,99.71922880007186,1,-566.4206686376523,-116.25902541570302,-400.3013333333333,0.0,-1,-1,-1,-1,-1,-1
2,1758903386.839693,25,0.35,270,288.82021514787965,45.97353944392655,1,-396.7054715606264,107.40484792310752,-400.3013333333333,0.0,-1,-1,-1,-1,-1,-1
3,1758903390.1988246,25,0.2,90,240.80820114790492,77.33658777312172,1,-470.37873079707936,184.12693340652544,-400.3013333333333,0.0,-1,-1,-1,-1,-1,-1
4,1758903393.069692,25,0.1,270,255.16232011611748,54.05248242466631,1,-491.6602126122053,-154.56914017398458,-400.3013333333333,0.0,-1,-1,-1,-1,-1,-1
5,1758903396.2273285,25,0.2,90,121.63486467721151,77.41009707279586,1,-339.9882201600403,-179.41224396449334,-400.3013333333333,0.0,-1,-1,-1,-1,-1,-1
6,1758903399.3800492,25,0.2,90,282.0243303718442,108.32809024589463,1,-401.59356011334216,11.11134868210253,-400.3013333333333,0.0,-1,-1,-1,-1,-1,-1
7,1758903402.5592804,25,0.1,270,247.96533336222237,113.41386945769892,1,-470.9645463719063,-267.3223741213959,-400.3013333333333,0.0,-1,-1,-1,-1,-1,-1
8,1758903405.7507176,25,0.35,90,234.0630151382182,47.758641436303094,1,-630.3977992510793,-94.85253197099301,-400.3013333333333,0.0,-1,-1,-1,-1,-1,-1
9,1758903408.9613364,25,0.0,90,188.0356176226052,93.63909174680639,1,-676.1788438610652,-176.03930307428726,-400.3013333333333,0.0,-1,-1,-1,-1,-1,-1
10,1758903412.1787853,25,0.35,90,239.28508232252662,129.34491579999988,1,-280.08547265378115,-32.540236200645865,-400.3013333333333,0.0,-1,-1,-1,-1,-1,-1
11,1758903415.430686,25,0.35,270,209.99337445406937,78.4152379566284,1,-414.45248942643286,-125.83281096678185,-400.3013333333333,0.0,-1,-1,-1,-1,-1,-1
12,1758903418.693659,25,0.0,270,246.54175177414334,118.97744183132467,1,-669.6596828409026,-168.20535997177046,-400.3013333333333,0.0,-1,-1,-1,-1,-1,-1
13,1758903422.0231419,25,0.2,90,253.01010977367696,65.90072398057443,1,-517.4521878374,-64.05238730153994,-400.3013333333333,0.0,-1,-1,-1,-1,-1,-1
14,1758903425.5427756,25,0.35,270,266.59316503106254,57.939287146149276,1,-493.84524108611123,-104.67543365889463,-400.3013333333333,0.0,-1,-1,-1,-1,-1,-1
15,1758903428.966733,25,0.35,90,243.79306241594603,73.54909469298966,1,-472.1885647010222,-168.78497432210762,-400.3013333333333,0.0,-1,-1,-1,-1,-1,-1
16,1758903432.375879,25,0.35,270,236.16058048529192,147.60527204154207,1,-352.47215542472264,-17.69945907481889,-400.3013333333333,0.0,-1,-1,-1,-1,-1,-1
17,1758903435.7478895,25,0.35,90,184.51195269948374,102.55974177295047,1,-590.4928650308048,-124.58567547695083,-400.3013333333333,0.0,-1,-1,-1,-1,-1,-1
18,1758903439.0944486,25,0.2,90,278.19547656384833,66.82581050158464,1,-388.1239753684087,-28.20333436234182,-400.3013333333333,0.0,-1,-1,-1,-1,-1,-1
19,1758903442.341865,25,0.0,90,207.78640953778134,72.51705101435854,1,-475.816952412105,27.45773461006749,-400.3013333333333,0.0,-1,-1,-1,-1,-1,-1
20,1758903445.758234,25,0.0,270,190.00096257082512,79.34200806785242,1,-463.3367043431081,-172.4464709750578,-400.3013333333333,0.0,-1,-1,-1,-1,-1,-1
21,1758903449.0895312,25,0.2,270,178.4262252187194,77.27131731135697,1,-477.5751671382196,-164.17404353014277,-400.3013333333333,0.0,-1,-1,-1,-1,-1,-1
22,1758903452.352999,25,0.6,270,162.76469167361802,90.907103958287,1,-516.4976790099755,-189.77567436142994,-400.3013333333333,0.0,-1,-1,-1,-1,-1,-1
23,1758903455.6879652,25,0.0,90,206.2799212917147,49.50673569652888,1,-328.78120328795296,-27.082070080261246,-400.3013333333333,0.0,-1,-1,-1,-1,-1,-1
24,1758903458.9667711,25,0.2,90,281.2289887896046,79.80052064047355,1,-499.0406293841088,-65.31028686367472,-400.3013333333333,0.0,-1,-1,-1,-1,-1,-1
25,1758903462.3578625,25,0.35,90,252.61828733895678,115.25402568388414,1,-532.389596142647,-120.91312530614897,-400.3013333333333,0.0,-1,-1,-1,-1,-1,-1
26,1758903465.7120128,25,0.35,270,184.74755395764583,102.03639493603967,1,-483.3685502280733,-103.6534153471693,-400.3013333333333,0.0,-1,-1,-1,-1,-1,-1
27,1758903469.0957003,25,0.6,270,365.1104941957387,124.94760120774289,1,-454.2656202901317,-184.25272687541585,-400.3013333333333,0.0,-1,-1,-1,-1,-1,-1
28,1758903472.4553216,25,0.35,90,244.97190383891467,156.36649985351988,1,-522.0737734446286,-263.6559220317494,-400.3013333333333,0.0,-1,-1,-1,-1,-1,-1
29,1758903475.6554644,25,0.2,90,169.35626660062584,140.5061667551438,1,-684.4346399983779,-1.1665698226599943,-400.3013333333333,0.0,-1,-1,-1,-1,-1,-1
30,1758903478.9946048,25,0.1,270,226.5928391121282,133.74587649557157,1,-493.52986452396914,-184.40739059248534,-400.3013333333333,0.0,-1,-1,-1,-1,-1,-1
31,1758903482.1515224,25,0.6,90,277.61097759749765,68.85614016698447,1,-407.6460945524117,-134.37176811903785,-400.3013333333333,0.0,-1,-1,-1,-1,-1,-1
32,1758903485.697833,25,0.6,270,290.97751432192797,96.58808113430209,1,-413.29191731447094,-70.91929724167227,-400.3013333333333,0.0,-1,-1,-1,-1,-1,-1
33,1758903489.0622525,25,0.6,90,222.68460715835315,89.39824122961988,1,-464.5649915019201,44.716179531817886,-400.3013333333333,0.0,-1,-1,-1,-1,-1,-1
34,1758903492.5986085,25,0.1,90,271.49510815117605,85.32551533491605,1,-515.326219679009,-245.27770111480908,-400.3013333333333,0.0,-1,-1,-1,-1,-1,-1
35,1758903496.1077964,25,0.35,90,200.27704399380664,106.14801819019152,1,-452.66224999228484,-148.18041061267215,-400.3013333333333,0.0,-1,-1,-1,-1,-1,-1
36,1758903499.586484,25,0.2,90,149.80578083246138,125.55153068421541,1,-460.2846008182994,-104.37719186829553,-400.3013333333333,0.0,-1,-1,-1,-1,-1,-1
37,1758903503.1067722,25,0.0,90,302.4554632230709,98.41115720138625,1,-559.5036774160135,-140.44593669013923,-400.3013333333333,0.0,-1,-1,-1,-1,-1,-1
38,1758903506.3280637,25,0.0,90,192.93553787571295,115.32317301121614,1,-559.9093291027914,-76.09060218714217,-400.3013333333333,0.0,-1,-1,-1,-1,-1,-1
39,1758903509.5869672,25,0.1,270,204.07235942744796,127.9403954576319,1,-368.2065989585327,-60.262081012324025,-400.3013333333333,0.0,-1,-1,-1,-1,-1,-1
40,1758903512.8966072,25,0.35,90,260.3720851151162,79.43318820420701,1,-576.6575222619861,-309.26218162153964,-400.3013333333333,0.0,-1,-1,-1,-1,-1,-1
41,1758903516.086862,25,0.1,270,246.7734432620274,110.33777719425919,1,-369.95636225044524,43.498766414482674,-400.3013333333333,0.0,-1,-1,-1,-1,-1,-1
42,1758903519.4588244,25,0.1,270,243.9777050546671,76.11453350188799,1,-509.5153464679597,-154.0709929665975,-400.3013333333333,0.0,-1,-1,-1,-1,-1,-1
43,1758903522.7030406,25,0.6,90,252.08661313173164,129.9961860467637,1,-498.999132419703,-14.065584714379199,-400.3013333333333,0.0,-1,-1,-1,-1,-1,-1
44,1758903525.9887757,25,0.2,90,259.2231593222339,80.57087954699203,1,-592.698934348251,-119.42748191896032,-400.3013333333333,0.0,-1,-1,-1,-1,-1,-1
45,1758903529.2350247,25,0.35,90,298.0765116529228,111.57269829909292,1,-557.7844422409115,-105.15870256414865,-400.3013333333333,0.0,-1,-1,-1,-1,-1,-1
46,1758903532.5821888,25,0.1,90,285.2833672084403,62.165770002659904,1,-461.79738462467805,-92.52178754766945,-400.3013333333333,0.0,-1,-1,-1,-1,-1,-1
47,1758903535.8603425,25,0.1,270,105.9475954542417,49.55635685325156,1,-321.6667875648377,-179.47303930221892,-400.3013333333333,0.0,-1,-1,-1,-1,-1,-1
48,1758903539.1535068,25,0.2,90,194.5776782045271,135.32877816212357,1,-318.1917511984377,-99.54573240616928,-400.3013333333333,0.0,-1,-1,-1,-1,-1,-1
49,1758903542.4848478,25,0.35,270,306.07286822653157,102.51997352225699,1,-655.296553507259,-331.7409388278594,-400.3013333333333,0.0,-1,-1,-1,-1,-1,-1
50,1758903545.7610757,25,0.6,270,273.3149873461989,84.0336660495852,1,-646.4123635996182,-17.39068362774927,-400.3013333333333,0.0,-1,-1,-1,-1,-1,-1
51,1758903549.072265,25,0.35,90,206.7259919204604,97.63929461065466,1,-412.0752639973658,-1.9238788898315704,-400.3013333333333,0.0,-1,-1,-1,-1,-1,-1
52,1758903552.326016,25,0.35,90,336.3529319178559,111.82107898097959,1,-459.1701217809653,-132.46900750721267,-400.3013333333333,0.0,-1,-1,-1,-1,-1,-1
53,1758903555.6311665,25,0.2,270,284.5360506854735,97.23952117474813,1,-521.7949650222481,38.379349249641365,-400.3013333333333,0.0,-1,-1,-1,-1,-1,-1
54,1758903558.833825,25,0.0,90,259.3192516871031,115.91738392371832,1,-611.0754575238954,26.936439927711035,-400.3013333333333,0.0,-1,-1,-1,-1,-1,-1
55,1758903562.087164,25,0.0,90,243.42328465531716,69.27230202757879,1,-337.3369285609242,-180.26401444431463,-400.3013333333333,0.0,-1,-1,-1,-1,-1,-1
56,1758903565.4318364,25,0.35,270,255.00993621388372,101.28610499729888,1,-769.4357130788426,-27.6041664810717,-400.3013333333333,0.0,-1,-1,-1,-1,-1,-1
57,1758903568.6412265,25,0.2,90,229.13037431134242,149.23622950304244,1,-485.6282752690251,-257.19906620924127,-400.3013333333333,0.0,-1,-1,-1,-1,-1,-1
58,1758903572.0036917,25,0.1,270,273.52488670597546,75.45906324115515,1,-321.6129415716439,-100.62102876455081,-400.3013333333333,0.0,-1,-1,-1,-1,-1,-1
59,1758903575.254233,25,0.2,90,208.05606646617815,109.0603198723133,1,-324.770798737133,-229.2458066461545,-400.3013333333333,0.0,-1,-1,-1,-1,-1,-1
60,1758903578.5800207,25,0.6,90,206.5104269513776,107.37546068665348,1,-527.5526295138393,-15.076311072179237,-400.3013333333333,0.0,-1,-1,-1,-1,-1,-1
61,1758903581.7921784,25,0.1,270,187.92085412887775,110.57622280797224,1,-527.2658091916139,-160.3623625048976,-400.3013333333333,0.0,-1,-1,-1,-1,-1,-1
62,1758903585.125743,25,0.35,270,283.662274027451,78.3597603154767,1,-360.9057627399342,-235.497306598498,-400.3013333333333,0.0,-1,-1,-1,-1,-1,-1
63,1758903588.4160616,25,0.0,270,229.852750924527,56.37988195177186,1,-501.96268572341444,7.084339205955388,-400.3013333333333,0.0,-1,-1,-1,-1,-1,-1
64,1758903591.7034495,25,0.1,270,256.1792470087665,63.16941522302499,1,-422.12993229103404,20.862078838737958,-400.3013333333333,0.0,-1,-1,-1,-1,-1,-1
65,1758903595.046074,25,0.2,90,250.67247455800756,75.67954754139585,1,-519.0711894108425,-237.5654975817724,-400.3013333333333,0.0,-1,-1,-1,-1,-1,-1
66,1758903598.3204741,25,0.6,270,241.88078106058995,183.28214137748768,1,-592.3075672883438,67.46741949496814,-400.3013333333333,0.0,-1,-1,-1,-1,-1,-1
67,1758903601.6478922,25,0.2,90,251.093266739634,114.54993859685122,1,-538.0302702196785,-53.06712811643994,-400.3013333333333,0.0,-1,-1,-1,-1,-1,-1
68,1758903604.8981957,25,0.2,270,171.58122573492233,136.53663167410258,1,-520.7223895708729,-42.62242736829336,-400.3013333333333,0.0,-1,-1,-1,-1,-1,-1
69,1758903608.181103,25,0.35,90,173.1165837557712,143.28422942205196,1,-204.64086332538284,-82.00498252935814,-400.3013333333333,0.0,-1,-1,-1,-1,-1,-1
70,1758903611.5272233,25,0.6,270,161.433098141313,102.13867004591528,1,-683.8095563096065,-241.067474464367,-400.3013333333333,0.0,-1,-1,-1,-1,-1,-1
71,1758903614.7069225,25,0.6,90,246.63693410895362,74.4505372730531,1,-322.5065173025307,-131.64318271198198,-400.3013333333333,0.0,-1,-1,-1,-1,-1,-1
72,1758903618.047594,25,0.0,90,253.39394452237516,104.07667261764054,1,-495.81004127457425,-180.84112779048365,-400.3013333333333,0.0,-1,-1,-1,-1,-1,-1
73,1758903621.218086,25,0.0,90,234.910106827648,98.3350748287544,1,-479.17388984435223,36.104166416043,-400.3013333333333,0.0,-1,-1,-1,-1,-1,-1
74,1758903624.5983279,25,0.1,270,284.28265703572174,-1.0,0,-1.0,-1.0,-400.3013333333333,0.0,-1,-1,-1,-1,-1,-1
75,1758903627.3105638,25,0.0,270,282.5539792666294,65.49443977189696,1,-459.293663547762,-110.9609311323679,-400.3013333333333,0.0,-1,-1,-1,-1,-1,-1
76,1758903630.5827765,25,0.35,90,229.62889147372385,141.44164284295468,1,-681.2372245010076,-145.53822204653673,-400.3013333333333,0.0,-1,-1,-1,-1,-1,-1
77,1758903633.9204376,25,0.1,270,285.0849900070444,135.0771226423349,1,-415.5055847758332,-194.39913994667353,-400.3013333333333,0.0,-1,-1,-1,-1,-1,-1
78,1758903637.233666,25,0.2,90,242.75856029960812,96.70326370256488,1,-543.802514244537,-66.88496905270881,-400.3013333333333,0.0,-1,-1,-1,-1,-1,-1
79,1758903640.5745678,25,0.2,270,192.385452031682,116.09195599371364,1,-506.08128995637907,-97.48379013132515,-400.3013333333333,0.0,-1,-1,-1,-1,-1,-1
80,1758903643.8466594,25,0.0,270,280.3373908264725,59.42785264420607,1,-438.43241210878625,-72.92758335952219,-400.3013333333333,0.0,-1,-1,-1,-1,-1,-1
81,1758903647.1710165,25,0.1,270,284.6245654824068,130.29279023159611,1,-636.9198236686728,-220.9380804034397,-400.3013333333333,0.0,-1,-1,-1,-1,-1,-1
82,1758903650.7388892,25,0.35,90,291.251922183223,141.04530783587322,1,-741.6201807701448,166.0756156469737,-400.3013333333333,0.0,-1,-1,-1,-1,-1,-1
83,1758903654.16633,25,0.6,270,222.55557951262517,126.98885343812506,1,-684.1344462580098,-22.354072279059082,-400.3013333333333,0.0,-1,-1,-1,-1,-1,-1
84,1758903657.719541,25,0.6,90,287.99067139812956,83.2747131275763,1,-513.6065112943223,-276.12482921907997,-400.3013333333333,0.0,-1,-1,-1,-1,-1,-1
85,1758903661.1133735,25,0.6,90,236.06823196083081,112.0752821053727,1,-323.3364274136356,125.97558592500869,-400.3013333333333,0.0,-1,-1,-1,-1,-1,-1
86,1758903665.5421097,25,0.2,90,201.57808210068555,80.23568683051609,1,-385.9659055599345,-189.8514588587654,-400.3013333333333,0.0,-1,-1,-1,-1,-1,-1
87,1758903669.0312407,25,0.6,90,244.92316895717934,118.738854870037,1,-474.46789250091945,-99.57214082309063,-400.3013333333333,0.0,-1,-1,-1,-1,-1,-1
88,1758903672.5493584,25,0.0,270,284.0361630491091,143.66924422808438,1,-597.4470269811827,-127.14707335666593,-400.3013333333333,0.0,-1,-1,-1,-1,-1,-1
89,1758903676.0386133,25,0.35,90,162.21428322445695,90.16344937365639,1,-531.8973249214706,-45.422943975871405,-400.3013333333333,0.0,-1,-1,-1,-1,-1,-1
90,1758903679.509557,25,0.35,270,338.167548615077,159.03595410735323,1,-652.9893991305378,-81.74403955756925,-400.3013333333333,0.0,-1,-1,-1,-1,-1,-1
91,1758903683.029154,25,0.35,270,228.98514136011906,144.66520807553022,1,-509.25232606710057,-465.6020937420757,-400.3013333333333,0.0,-1,-1,-1,-1,-1,-1
92,1758903686.4975603,25,0.1,270,270.8402317120689,45.478410151915554,1,-755.711745102531,-291.81786084769396,-400.3013333333333,0.0,-1,-1,-1,-1,-1,-1
93,1758903689.9892516,25,0.6,90,198.73141478443975,114.60342852417321,1,-496.5596130280693,-282.46646195555866,-400.3013333333333,0.0,-1,-1,-1,-1,-1,-1
94,1758903693.5800698,25,0.6,270,197.18582388381964,70.16634874840764,1,-427.0985789296743,-32.490891839266695,-400.3013333333333,0.0,-1,-1,-1,-1,-1,-1
95,1758903697.0660696,25,0.6,270,380.2807925054366,75.78012428526594,1,-597.0247046580769,-99.71224044089657,-400.3013333333333,0.0,-1,-1,-1,-1,-1,-1
96,1758903700.6386886,25,0.1,90,220.17483666251437,95.72666870626216,1,-549.1742456051247,-330.51067983971825,-400.3013333333333,0.0,-1,-1,-1,-1,-1,-1
97,1758903704.0387654,25,0.1,90,211.673022512025,147.66412607367485,1,-631.4560465452292,19.215258264433402,-400.3013333333333,0.0,-1,-1,-1,-1,-1,-1
98,1758903707.5890262,25,0.35,270,251.0721397504712,135.98389523128344,1,-506.45693060690195,-139.27969160805964,-400.3013333333333,0.0,-1,-1,-1,-1,-1,-1
99,1758903710.996161,25,0.1,270,274.704384318564,33.34592500542672,1,-645.2948561553826,-61.140946195656284,-400.3013333333333,0.0,-1,-1,-1,-1,-1,-1
100,1758903714.5644917,25,0.2,270,239.55225984118957,95.90822543316773,1,-534.5510072452561,4.1983868260264074,-400.3013333333333,0.0,-1,-1,-1,-1,-1,-1
101,1758903717.975132,25,0.0,270,177.93191609582794,119.20062614852503,1,-436.33762923095753,-86.46063812006474,-400.3013333333333,0.0,-1,-1,-1,-1,-1,-1
103,1758903741.9227526,25,0.2,270,219.04082917746388,81.5957587678609,1,-463.40760363815895,-168.32237846278397,-400.3013333333333,0.0,-1,-1,-1,-1,-1,-1
104,1758903745.5206535,25,0.2,270,273.55455127919544,127.75368240908827,1,-513.7502938212831,-213.27488072746524,-400.3013333333333,0.0,-1,-1,-1,-1,-1,-1
105,1758903748.9913037,25,0.0,90,221.16772532328244,119.57313387795773,1,-523.0631364403378,-70.69756459048628,-400.3013333333333,0.0,-1,-1,-1,-1,-1,-1
106,1758903752.4858117,25,0.0,270,246.23993712770945,139.35729620299625,1,-423.8032102739609,-164.5788525602001,-400.3013333333333,0.0,-1,-1,-1,-1,-1,-1
107,1758903755.9500062,25,0.6,270,290.5218163570894,94.4998583216975,1,-536.5424771541568,-107.38783767274522,-400.3013333333333,0.0,-1,-1,-1,-1,-1,-1
108,1758903759.454026,25,0.1,90,304.34249718695645,-1.0,0,-1.0,-1.0,-400.3013333333333,0.0,-1,-1,-1,-1,-1,-1
109,1758903762.3481512,25,0.6,90,288.19914958045547,66.60054555038562,1,-433.8782296087885,-166.98295300416072,-400.3013333333333,0.0,-1,-1,-1,-1,-1,-1
110,1758903765.888642,25,0.0,270,279.4724218139908,86.97087262443816,1,-421.69085052026276,51.87712655421183,-400.3013333333333,0.0,-1,-1,-1,-1,-1,-1
111,1758903769.440105,25,0.2,90,198.98417862806485,142.94574907181777,1,-545.4929834976541,73.56011592899458,-400.3013333333333,0.0,-1,-1,-1,-1,-1,-1
112,1758903772.8229475,25,0.1,90,333.2887752037135,53.63171896541636,1,-678.0596326621542,-217.72569688142028,-400.3013333333333,0.0,-1,-1,-1,-1,-1,-1
113,1758903776.4011934,25,0.6,270,179.3420402850867,69.81623898193195,1,-614.9295311723619,-163.87765531264813,-400.3013333333333,0.0,-1,-1,-1,-1,-1,-1
114,1758903779.8413131,25,0.0,270,254.82283518717867,67.5058727162687,1,-632.696262593758,4.69446949764361,-400.3013333333333,0.0,-1,-1,-1,-1,-1,-1
115,1758903783.3614244,25,0.6,90,206.0889410721352,60.2477507300895,1,-571.8953245749085,-23.70200724673299,-400.3013333333333,0.0,-1,-1,-1,-1,-1,-1
116,1758903786.7883337,25,0.2,270,249.20495492057788,117.02545750715025,1,-431.2986392045057,-282.63322430625556,-400.3013333333333,0.0,-1,-1,-1,-1,-1,-1
117,1758903790.2808418,25,0.2,90,344.9461007263785,68.67014174961653,1,-607.2421132135391,-158.76726191631218,-400.3013333333333,0.0,-1,-1,-1,-1,-1,-1
118,1758903793.846233,25,0.0,90,250.79359724263398,76.51904050486306,1,-638.5596201544593,-105.82244697178696,-400.3013333333333,0.0,-1,-1,-1,-1,-1,-1
119,1758903797.3313613,25,0.1,270,209.46865199091613,143.16309756022042,1,-551.4690552867262,-58.35514648479527,-400.3013333333333,0.0,-1,-1,-1,-1,-1,-1
120,1758903800.913696,25,0.6,90,237.40381248224813,120.76776469074639,1,-558.7477918480685,84.1830451265601,-400.3013333333333,0.0,-1,-1,-1,-1,-1,-1
121,1758903804.4213517,25,0.2,90,315.0827890690281,99.84048335915578,1,-609.2137437322812,-131.77033806232194,-400.3013333333333,0.0,-1,-1,-1,-1,-1,-1
122,1758903807.9696486,25,0.6,90,166.33273168140337,125.67238857011753,1,-560.2895669539935,-113.96683728993305,-400.3013333333333,0.0,-1,-1,-1,-1,-1,-1
123,1758903811.5260572,25,0.6,270,289.4425469404205,97.1735502440693,1,-456.2511521608504,-62.86087664584796,-400.3013333333333,0.0,-1,-1,-1,-1,-1,-1
124,1758903814.9830773,25,0.35,90,295.05866847720085,76.52374942751405,1,-467.71241462498233,-158.99059080163136,-400.3013333333333,0.0,-1,-1,-1,-1,-1,-1
125,1758903818.5929277,25,0.2,90,222.03507732376238,115.07384752706305,1,-291.66784755061485,-54.90361690490452,-400.3013333333333,0.0,-1,-1,-1,-1,-1,-1
126,1758903822.0478308,25,0.2,90,225.93544574756385,121.51894170729803,1,-677.3693351942632,-108.2746180284925,-400.3013333333333,0.0,-1,-1,-1,-1,-1,-1
127,1758903825.6369197,25,0.0,270,274.7225649035318,77.44750576808012,1,-631.1890426698426,-218.97562673188276,-400.3013333333333,0.0,-1,-1,-1,-1,-1,-1
128,1758903829.0932682,25,0.35,90,236.76577683832113,79.47012545766367,1,-583.7341453894255,-151.34663319142075,-400.3013333333333,0.0,-1,-1,-1,-1,-1,-1
129,1758903832.6442199,25,0.6,270,266.20836562901445,142.44042950993781,1,-561.2619022215379,-206.93649429894924,-400.3013333333333,0.0,-1,-1,-1,-1,-1,-1
130,1758903836.209145,25,0.1,270,74.88656593861484,69.15473158829931,1,-473.84706611198027,-268.17738820171684,-400.3013333333333,0.0,-1,-1,-1,-1,-1,-1
131,1758903839.717814,25,0.35,90,221.96611751816752,109.33156644283301,1,-370.0266493462998,-95.72482218028381,-400.3013333333333,0.0,-1,-1,-1,-1,-1,-1
132,1758903843.2220685,25,0.0,270,160.55408308603512,84.91458364068406,1,-527.8429673192121,-24.782329752086184,-400.3013333333333,0.0,-1,-1,-1,-1,-1,-1
133,1758903846.7316675,25,0.35,270,290.54678103366973,121.51864771514774,1,-547.8913430996358,-90.74266145645248,-400.3013333333333,0.0,-1,-1,-1,-1,-1,-1
134,1758903850.2780426,25,0.1,90,254.4188930000635,86.46104303235137,1,-534.2755861824642,-93.23662349049272,-400.3013333333333,0.0,-1,-1,-1,-1,-1,-1
135,1758903853.8305874,25,0.6,90,147.75621747359764,60.92239685619726,1,-539.9821382839021,-86.75463445776293,-400.3013333333333,0.0,-1,-1,-1,-1,-1,-1
136,1758903857.2865176,25,0.2,270,233.52288213803322,80.81775726042159,1,-496.86347786812667,-98.87483341625742,-400.3013333333333,0.0,-1,-1,-1,-1,-1,-1
137,1758903860.81891,25,0.6,270,211.2905000989786,-1.0,0,-1.0,-1.0,-400.3013333333333,0.0,-1,-1,-1,-1,-1,-1
138,1758903863.6692255,25,0.2,270,189.12922192507114,85.21833114768637,1,-487.81586018970046,-32.18618855394202,-400.3013333333333,0.0,-1,-1,-1,-1,-1,-1
139,1758903867.1570656,25,0.35,270,201.69958561153567,98.91013463072659,1,-501.23654540280666,-131.24499306017688,-400.3013333333333,0.0,-1,-1,-1,-1,-1,-1
140,1758903870.7722714,25,0.35,270,233.7032143949239,75.82928439542468,1,-537.708823084897,-94.43626627833827,-400.3013333333333,0.0,-1,-1,-1,-1,-1,-1
141,1758903874.2269645,25,0.6,90,319.5023962794437,101.21366566844873,1,-435.916365966846,-17.407887649059717,-400.3013333333333,0.0,-1,-1,-1,-1,-1,-1
142,1758903877.806286,25,0.6,270,243.33677728674974,146.66179361393182,1,-470.95564403535263,-20.635055427799543,-400.3013333333333,0.0,-1,-1,-1,-1,-1,-1
143,1758903881.230254,25,0.6,90,181.19979276407418,-1.0,0,-1.0,-1.0,-400.3013333333333,0.0,-1,-1,-1,-1,-1,-1
144,1758903884.2072444,25,0.0,270,246.14417548911328,75.6023173014682,1,-551.1469502929654,-135.6067562678753,-400.3013333333333,0.0,-1,-1,-1,-1,-1,-1
145,1758903887.6320434,25,0.6,90,203.8000521278649,128.227220703631,1,-530.9197194549292,-2.444988943864857,-400.3013333333333,0.0,-1,-1,-1,-1,-1,-1
146,1758903891.1731246,25,0.1,270,165.13500893537056,92.51762031705404,1,-406.7354080162577,-153.36848466139966,-400.3013333333333,0.0,-1,-1,-1,-1,-1,-1
147,1758903894.7009284,25,0.2,270,151.4246413790369,94.7750225467067,1,-447.0932354647694,60.3587143211582,-400.3013333333333,0.0,-1,-1,-1,-1,-1,-1
148,1758903898.204672,25,0.35,90,252.22001984492562,58.04084719391312,1,-649.1757461347831,-15.60489726320607,-400.3013333333333,0.0,-1,-1,-1,-1,-1,-1
149,1758903901.74869,25,0.1,270,315.26952338953026,94.71754533682538,1,-477.4850277576821,-252.40523314513842,-400.3013333333333,0.0,-1,-1,-1,-1,-1,-1
150,1758903905.2840557,25,0.6,270,285.35351799066996,101.7448989200474,1,-409.5525841074558,-74.98533976955994,-400.3013333333333,0.0,-1,-1,-1,-1,-1,-1
151,1758903908.801278,25,0.35,90,308.87483240104916,107.89596947616835,1,-618.8435371771634,-179.90372498467715,-400.3013333333333,0.0,-1,-1,-1,-1,-1,-1
152,1758903912.4016316,25,0.0,90,252.7362460553412,126.95220787736811,1,-445.18925811012446,-159.0832795263042,-400.3013333333333,0.0,-1,-1,-1,-1,-1,-1
153,1758903915.862314,25,0.1,270,231.7594440189327,138.87051141570745,1,-254.94591744394918,-105.85795797735436,-400.3013333333333,0.0,-1,-1,-1,-1,-1,-1
154,1758903919.4380548,25,0.1,90,258.0212043346175,112.80633261906368,1,-468.33270444067284,-199.62058301855396,-400.3013333333333,0.0,-1,-1,-1,-1,-1,-1
155,1758903922.9187264,25,0.0,90,286.3835556710858,81.72248203047067,1,-658.2620458334773,-198.58521460656613,-400.3013333333333,0.0,-1,-1,-1,-1,-1,-1
156,1758903926.454131,25,0.1,90,284.8451166251237,103.52381093333061,1,-444.91863298039783,-19.85595103382738,-400.3013333333333,0.0,-1,-1,-1,-1,-1,-1
157,1758903929.96713,25,0.35,90,239.35391097329529,32.82630202443195,1,-678.8805870234496,-227.05779954523135,-400.3013333333333,0.0,-1,-1,-1,-1,-1,-1
158,1758903933.4380295,25,0.2,270,293.376326521065,81.92898177463434,1,-481.21757072504727,-149.5192660661568,-400.3013333333333,0.0,-1,-1,-1,-1,-1,-1
159,1758903936.9260335,25,0.6,270,238.203228765423,110.06161760618909,1,-474.77754011537456,-73.53639008186884,-400.3013333333333,0.0,-1,-1,-1,-1,-1,-1
160,1758903940.341471,25,0.2,90,232.6760205596858,131.42896120180805,1,-349.8189233690458,-170.8103457536854,-400.3013333333333,0.0,-1,-1,-1,-1,-1,-1
161,1758903943.9095747,25,0.35,270,253.9340309610113,117.63158346146162,1,-479.3156380214907,-248.5985963279268,-400.3013333333333,0.0,-1,-1,-1,-1,-1,-1
162,1758903947.2917123,25,0.2,90,145.41220839397408,75.75820178288527,1,-560.8985332435617,-28.455272394228913,-400.3013333333333,0.0,-1,-1,-1,-1,-1,-1
163,1758903950.9575589,25,0.35,90,231.8239715259752,122.56383891324181,1,-175.18663154537586,-34.67898854503275,-400.3013333333333,0.0,-1,-1,-1,-1,-1,-1
164,1758903954.5020728,25,0.1,90,225.37815683505573,112.16676185359435,1,-608.6717776364175,61.6115149415767,-400.3013333333333,0.0,-1,-1,-1,-1,-1,-1
165,1758903957.926375,25,0.1,90,272.00384854659114,68.34579729571485,1,-482.841273576159,-12.303962300451829,-400.3013333333333,0.0,-1,-1,-1,-1,-1,-1
166,1758903961.4460425,25,0.0,90,226.09254438991616,93.79081705260089,1,-545.8599559956097,-35.1929862353833,-400.3013333333333,0.0,-1,-1,-1,-1,-1,-1
167,1758903964.8519454,25,0.2,270,334.29572819231043,143.10982444011202,1,-504.4976242322441,-288.73061423235407,-400.3013333333333,0.0,-1,-1,-1,-1,-1,-1
168,1758903968.46384,25,0.2,270,279.971119538044,156.38561544596374,1,-657.4688737128542,-70.25342225030141,-400.3013333333333,0.0,-1,-1,-1,-1,-1,-1
169,1758903971.8924394,25,0.6,270,202.6636356743978,-1.0,0,-1.0,-1.0,-400.3013333333333,0.0,-1,-1,-1,-1,-1,-1
170,1758903974.754057,25,0.35,90,314.88828043057913,73.39787191101797,1,-693.3337474257701,-179.6354720516713,-400.3013333333333,0.0,-1,-1,-1,-1,-1,-1
171,1758903978.2449307,25,0.0,90,261.1161199864631,71.58165875458914,1,-438.2355273944404,-125.50115307173992,-400.3013333333333,0.0,-1,-1,-1,-1,-1,-1
172,1758903981.735853,25,0.1,270,293.6908530693259,117.06567597903914,1,-298.5777669675123,-127.22041226545525,-400.3013333333333,0.0,-1,-1,-1,-1,-1,-1
173,1758903985.3959846,25,0.2,270,259.97012814013124,80.12975428625566,1,-665.5316287463197,-311.1717422959029,-400.3013333333333,0.0,-1,-1,-1,-1,-1,-1
174,1758903988.804954,25,0.6,270,282.63451639096917,100.04023029783642,1,-498.7040272999096,-94.21197524159962,-400.3013333333333,0.0,-1,-1,-1,-1,-1,-1
175,1758903992.3046203,25,0.6,270,227.09675384673596,57.54691206639101,1,-472.3454622039395,-202.0735573769752,-400.3013333333333,0.0,-1,-1,-1,-1,-1,-1
176,1758903995.797934,25,0.0,270,152.2636033205299,155.3684046862591,1,-492.9482092039333,-16.383420481084897,-400.3013333333333,0.0,-1,-1,-1,-1,-1,-1
177,1758903999.2215884,25,0.2,90,252.5465045127883,26.5467564171701,1,-483.7712379411272,-145.8716214688875,-400.3013333333333,0.0,-1,-1,-1,-1,-1,-1
178,1758904002.8015275,25,0.2,90,224.39390269286304,141.62554742812767,1,-493.87441899413034,-154.84851370148337,-400.3013333333333,0.0,-1,-1,-1,-1,-1,-1
179,1758904006.2729516,25,0.0,90,276.0374886793931,45.96287417307341,1,-525.148712429583,-13.836518794304581,-400.3013333333333,0.0,-1,-1,-1,-1,-1,-1
180,1758904009.78197,25,0.2,270,259.4608195055325,59.11822489513784,1,-456.2364813628716,-40.461998783084724,-400.3013333333333,0.0,-1,-1,-1,-1,-1,-1
181,1758904013.2211823,25,0.2,270,296.32221022446635,96.97039273271793,1,-388.51212618589994,-72.39306660042112,-400.3013333333333,0.0,-1,-1,-1,-1,-1,-1
182,1758904016.7268715,25,0.0,270,208.67477494256832,150.44015140575112,1,-432.41973116534507,-312.5248683031914,-400.3013333333333,0.0,-1,-1,-1,-1,-1,-1
183,1758904020.205802,25,0.0,90,186.3623558636617,113.56053228595275,1,-533.8780535089811,7.3420103062332345,-400.3013333333333,0.0,-1,-1,-1,-1,-1,-1
184,1758904023.6294458,25,0.2,270,241.06999973625332,44.31747644943161,1,-465.88231863654846,-155.66806083964673,-400.3013333333333,0.0,-1,-1,-1,-1,-1,-1
185,1758904027.1676779,25,0.6,270,292.21805227621326,55.631271975936656,1,-627.4234269603164,-103.45930852701474,-400.3013333333333,0.0,-1,-1,-1,-1,-1,-1
186,1758904030.6102731,25,0.6,270,260.33596679268487,60.40306797234813,1,-262.8133271263508,-70.68594211682854,-400.3013333333333,0.0,-1,-1,-1,-1,-1,-1
187,1758904034.1034617,25,0.0,90,181.82010604157975,130.22666625377846,1,-541.151931988469,37.002088298770445,-400.3013333333333,0.0,-1,-1,-1,-1,-1,-1
188,1758904037.5694742,25,0.35,270,238.72810488556345,87.4233868241304,1,-661.5364594996304,-80.81674534342436,-400.3013333333333,0.0,-1,-1,-1,-1,-1,-1
189,1758904041.0442808,25,0.6,270,244.8270858673898,138.63054003373813,1,-655.1418217769954,33.81913009675131,-400.3013333333333,0.0,-1,-1,-1,-1,-1,-1
190,1758904044.5026615,25,0.0,90,241.6323144265073,95.17656635587261,1,-558.5049267950465,-48.50957744552737,-400.3013333333333,0.0,-1,-1,-1,-1,-1,-1
191,1758904047.9316127,25,0.6,90,265.4819810532749,80.97336149732936,1,-458.0895959556692,-369.8813874147343,-400.3013333333333,0.0,-1,-1,-1,-1,-1,-1
192,1758904051.4776652,25,0.6,90,219.03663756776484,83.40056706216836,1,-589.0430590686801,109.54078163191437,-400.3013333333333,0.0,-1,-1,-1,-1,-1,-1
193,1758904054.8994873,25,0.6,90,281.1176063070788,89.98097870788894,1,-360.7109521473201,-180.6045543405919,-400.3013333333333,0.0,-1,-1,-1,-1,-1,-1
194,1758904058.4802618,25,0.35,270,230.3477736753284,80.12255064594879,1,-550.2350166748678,-228.00621366533804,-400.3013333333333,0.0,-1,-1,-1,-1,-1,-1
195,1758904061.9566414,25,0.2,90,134.8420201198335,103.79142544999193,1,-573.7768132972933,-232.60399831774532,-400.3013333333333,0.0,-1,-1,-1,-1,-1,-1
196,1758904065.4704545,25,0.6,90,216.48169363952957,71.01914972173181,1,-297.6053865153847,-54.77335740010679,-400.3013333333333,0.0,-1,-1,-1,-1,-1,-1
197,1758904069.043616,25,0.2,270,313.02605387317425,113.21152449002605,1,-661.9003583489332,28.972656651795262,-400.3013333333333,0.0,-1,-1,-1,-1,-1,-1
198,1758904072.4847505,25,0.1,90,335.63430292665043,66.86034197029825,1,-775.1649143073936,-213.5917908509751,-400.3013333333333,0.0,-1,-1,-1,-1,-1,-1
199,1758904075.9997134,25,0.0,90,258.8150109674739,107.31087889114607,1,-599.8401386719173,-45.47822769192011,-400.3013333333333,0.0,-1,-1,-1,-1,-1,-1
200,1758904079.4612842,25,0.2,90,269.13572033782265,103.67307938902029,1,-559.9181510452474,-158.39608258731357,-400.3013333333333,0.0,-1,-1,-1,-1,-1,-1
201,1758904082.9784453,25,0.6,270,234.94871224426564,71.91817668977586,1,-465.8097077168778,-223.0591781285051,-400.3013333333333,0.0,-1,-1,-1,-1,-1,-1
202,1758904086.4997423,25,0.2,90,255.30319000606337,82.52106393012525,1,-446.84195060532113,-57.869416461411085,-400.3013333333333,0.0,-1,-1,-1,-1,-1,-1
203,1758904089.95729,25,0.35,90,338.7890195935253,92.08086193761758,1,-595.3651144650637,77.64985050558403,-400.3013333333333,0.0,-1,-1,-1,-1,-1,-1
204,1758904093.460909,25,0.1,90,325.10095131163416,92.52658876701494,1,-529.8641474493531,-110.79432797114809,-400.3013333333333,0.0,-1,-1,-1,-1,-1,-1
205,1758904096.917005,25,0.0,270,246.62862497292505,140.62511859752829,1,-332.0442578779466,-88.22375644000981,-400.3013333333333,0.0,-1,-1,-1,-1,-1,-1
206,1758904100.4668722,25,0.6,270,209.28920823366468,79.52829662034844,1,-453.64695046470655,-152.07917837255843,-400.3013333333333,0.0,-1,-1,-1,-1,-1,-1
207,1758904103.8778806,25,0.2,90,267.18047092981936,160.3845530769993,1,-535.1582135722364,-102.22396082207405,-400.3013333333333,0.0,-1,-1,-1,-1,-1,-1
208,1758904107.3801951,25,0.1,270,201.37426420227382,106.43271580533069,1,-674.2568201032616,-164.65133237010622,-400.3013333333333,0.0,-1,-1,-1,-1,-1,-1
209,1758904110.9177513,25,0.6,90,206.61124593338062,55.41061446100204,1,-391.46384827826546,2.7323233994742964,-400.3013333333333,0.0,-1,-1,-1,-1,-1,-1
210,1758904114.350165,25,0.6,90,206.69037485964833,87.24217040404552,1,-480.741277283398,-146.2175273515367,-400.3013333333333,0.0,-1,-1,-1,-1,-1,-1
211,1758904117.9039557,25,0.0,90,207.7543382086561,122.9755846214028,1,-450.0239436738701,-260.9397324251114,-400.3013333333333,0.0,-1,-1,-1,-1,-1,-1
212,1758904121.364,25,0.35,90,312.0487032151744,109.63960900237613,1,-366.59288108241606,-192.80108181433593,-400.3013333333333,0.0,-1,-1,-1,-1,-1,-1
213,1758904124.8697941,25,0.35,270,211.7712064675949,98.38149456442878,1,-550.34894776845,-130.7947724082843,-400.3013333333333,0.0,-1,-1,-1,-1,-1,-1
214,1758904128.3367264,25,0.35,270,322.84213141453574,61.16307023563052,1,-463.000820983421,-18.281549193564217,-400.3013333333333,0.0,-1,-1,-1,-1,-1,-1
215,1758904131.857963,25,0.6,270,273.1049926379603,113.30638348104621,1,-544.4309509595685,-103.16015388577607,-400.3013333333333,0.0,-1,-1,-1,-1,-1,-1
216,1758904135.3597114,25,0.35,90,219.66648472545523,73.93150034928527,1,-497.4152644514556,-330.11295220402997,-400.3013333333333,0.0,-1,-1,-1,-1,-1,-1
217,1758904138.8130941,25,0.0,90,328.93481674154737,92.49485378310136,1,-465.29882242721783,126.1247986946639,-400.3013333333333,0.0,-1,-1,-1,-1,-1,-1
218,1758904142.3405983,25,0.2,270,209.67390154479438,105.89283724666564,1,-555.2187934351816,-155.26470964061537,-400.3013333333333,0.0,-1,-1,-1,-1,-1,-1
219,1758904145.810714,25,0.1,270,330.6380296645467,80.98294642350598,1,-682.355037020883,60.91219681141848,-400.3013333333333,0.0,-1,-1,-1,-1,-1,-1
220,1758904149.349025,25,0.0,270,203.98713616847,100.73250119622466,1,-313.62527646604326,-156.1860032820265,-400.3013333333333,0.0,-1,-1,-1,-1,-1,-1
221,1758904152.7883444,25,0.2,90,233.38492444153536,79.0397581688867,1,-444.0483119769259,-28.04478879525594,-400.3013333333333,0.0,-1,-1,-1,-1,-1,-1
222,1758904156.3247368,25,0.35,270,241.48689451332024,92.76694613019401,1,-337.1214397585113,-196.66347306462927,-400.3013333333333,0.0,-1,-1,-1,-1,-1,-1
223,1758904159.8559442,25,0.0,270,209.42285399344627,102.70725231767486,1,-614.6874476309371,-226.94754315487256,-400.3013333333333,0.0,-1,-1,-1,-1,-1,-1
224,1758904163.2654185,25,0.1,90,219.47711105604083,-1.0,0,-1.0,-1.0,-400.3013333333333,0.0,-1,-1,-1,-1,-1,-1
225,1758904166.1873376,25,0.2,90,245.68066831964342,117.59668149418924,1,-561.5523449048278,-134.96498519477828,-400.3013333333333,0.0,-1,-1,-1,-1,-1,-1
226,1758904169.6219034,25,0.35,270,208.95881763381576,113.82712505392423,1,-658.4418971936556,-45.720771820064144,-400.3013333333333,0.0,-1,-1,-1,-1,-1,-1
227,1758904173.154103,25,0.2,270,281.484071666748,126.72235798205426,1,-580.2312517841696,33.71089037481602,-400.3013333333333,0.0,-1,-1,-1,-1,-1,-1
228,1758904176.5976,25,0.35,270,164.00187263139026,97.82448223641791,1,-676.280392655839,-352.34443629189616,-400.3013333333333,0.0,-1,-1,-1,-1,-1,-1
229,1758904180.1363287,25,0.6,270,239.60682641091353,144.25140380780766,1,-440.01454736112504,7.028821770436238,-400.3013333333333,0.0,-1,-1,-1,-1,-1,-1
230,1758904183.6500754,25,0.6,270,218.53241573860916,83.64536426866717,1,-358.5348035290119,-144.62905541899553,-400.3013333333333,0.0,-1,-1,-1,-1,-1,-1
231,1758904187.0873587,25,0.2,270,222.703663168383,52.82087248473405,1,-637.8967557880283,95.25020189656917,-400.3013333333333,0.0,-1,-1,-1,-1,-1,-1
232,1758904190.5930817,25,0.2,90,306.2960602472867,48.42264336446456,1,-526.7017131171003,-0.9872742163934163,-400.3013333333333,0.0,-1,-1,-1,-1,-1,-1
233,1758904194.0367022,25,0.2,270,256.19563957408934,106.98776283387637,1,-633.2470026680492,-237.5228496783246,-400.3013333333333,0.0,-1,-1,-1,-1,-1,-1
234,1758904197.5579636,25,0.2,90,274.2463285020637,107.23808613375155,1,-400.3397620242814,-151.30565708342863,-400.3013333333333,0.0,-1,-1,-1,-1,-1,-1
235,1758904201.0075347,25,0.2,270,289.9987835457892,117.3305703782932,1,-711.5819386880582,-108.00554040987123,-400.3013333333333,0.0,-1,-1,-1,-1,-1,-1
236,1758904204.5490003,25,0.2,90,156.4521651104632,139.565362994823,1,-579.3316111990732,-197.295382947705,-400.3013333333333,0.0,-1,-1,-1,-1,-1,-1
237,1758904208.0992568,25,0.6,270,291.20910523830014,72.62390163986703,1,-509.80892026622405,-77.69540558027464,-400.3013333333333,0.0,-1,-1,-1,-1,-1,-1
238,1758904211.541038,25,0.0,270,188.31173900076286,-1.0,0,-1.0,-1.0,-400.3013333333333,0.0,-1,-1,-1,-1,-1,-1
239,1758904214.4213197,25,0.2,90,153.7848900150335,61.49316964917827,1,-476.2208350639153,3.4934067785500105,-400.3013333333333,0.0,-1,-1,-1,-1,-1,-1
240,1758904217.893312,25,0.0,270,240.8024058069312,75.98651858949655,1,-424.3549612324187,-348.92129769522643,-400.3013333333333,0.0,-1,-1,-1,-1,-1,-1
241,1758904221.4562106,25,0.0,270,235.29612643536223,92.21059322371838,1,-681.4368057336321,-94.31812280739842,-400.3013333333333,0.0,-1,-1,-1,-1,-1,-1
242,1758904225.0468874,25,0.0,90,270.4650080429281,-1.0,0,-1.0,-1.0,-400.3013333333333,0.0,-1,-1,-1,-1,-1,-1
243,1758904227.8741453,25,0.1,90,232.1252574056195,119.23932066386105,1,-545.463710078411,82.34125982062173,-400.3013333333333,0.0,-1,-1,-1,-1,-1,-1
244,1758904231.4706762,25,0.35,270,251.3625871104937,149.77586740131488,1,-567.049886459057,-142.59588086608466,-400.3013333333333,0.0,-1,-1,-1,-1,-1,-1
245,1758904234.915665,25,0.1,270,228.8115550714856,112.7521147644384,1,-416.53653786043424,112.96793811672168,-400.3013333333333,0.0,-1,-1,-1,-1,-1,-1
246,1758904238.4050877,25,0.35,90,216.62350603261805,105.58459258780944,1,-494.7299761666919,-244.98737953372859,-400.3013333333333,0.0,-1,-1,-1,-1,-1,-1
247,1758904241.904895,25,0.2,90,205.6166161128325,71.80150881239655,1,-480.6796136753194,-37.57294950584756,-400.3013333333333,0.0,-1,-1,-1,-1,-1,-1
248,1758904245.4113653,25,0.35,90,197.53487171637042,121.22556660559555,1,-513.2885319849705,-234.75419247366327,-400.3013333333333,0.0,-1,-1,-1,-1,-1,-1
249,1758904248.9312024,25,0.0,90,304.0752384886324,96.79811658760616,1,-466.35604117726734,-353.54148359522475,-400.3013333333333,0.0,-1,-1,-1,-1,-1,-1
250,1758904252.3507743,25,0.1,90,199.4841256453109,123.7038845056579,1,-352.79245297028467,6.385139459719596,-400.3013333333333,0.0,-1,-1,-1,-1,-1,-1
251,1758904255.877375,25,0.35,90,211.5322341594312,125.16910585659951,1,-484.82271095052613,-110.05655090793428,-400.3013333333333,0.0,-1,-1,-1,-1,-1,-1
252,1758904259.3012226,25,0.6,270,253.90415486489803,81.39091969937031,1,-504.8781514220826,-58.963509031384156,-400.3013333333333,0.0,-1,-1,-1,-1,-1,-1
253,1758904262.8425565,25,0.0,270,252.60571675615773,52.64846593361076,1,-527.4999952347086,-103.46082751452023,-400.3013333333333,0.0,-1,-1,-1,-1,-1,-1
254,1758904266.2698884,25,0.35,270,304.56510998230937,101.69694226620771,1,-324.3873899260176,-123.6321643152676,-400.3013333333333,0.0,-1,-1,-1,-1,-1,-1
255,1758904269.9090312,25,0.2,90,253.58763946178632,88.02131658553724,1,-424.59590032661674,-38.184964710954276,-400.3013333333333,0.0,-1,-1,-1,-1,-1,-1
256,1758904273.4883213,25,0.2,270,239.914619068376,116.44412862631447,1,-585.17535811756,-183.29015358049887,-400.3013333333333,0.0,-1,-1,-1,-1,-1,-1
257,1758904276.9884973,25,0.1,90,234.56149698435877,70.65875876474018,1,-373.9211645087821,-101.91853048959004,-400.3013333333333,0.0,-1,-1,-1,-1,-1,-1
258,1758904280.556318,25,0.0,90,261.2300147837362,149.49234354265377,1,-478.4881021186585,-95.10599746437464,-400.3013333333333,0.0,-1,-1,-1,-1,-1,-1
259,1758904284.0205324,25,0.2,90,256.9584311209664,68.0042429177342,1,-405.70684525368483,-100.52676351076948,-400.3013333333333,0.0,-1,-1,-1,-1,-1,-1
260,1758904287.6044242,25,0.35,270,217.44696801267128,85.2340038204288,1,-524.562543249883,-126.48218049043305,-400.3013333333333,0.0,-1,-1,-1,-1,-1,-1
261,1758904291.102347,25,0.0,270,350.72641092789917,102.04095897332861,1,-381.7675879227531,-158.66071514865993,-400.3013333333333,0.0,-1,-1,-1,-1,-1,-1
262,1758904294.5811176,25,0.6,90,173.26360866918023,77.68673739699516,1,-573.1437704624037,-12.260394220434478,-400.3013333333333,0.0,-1,-1,-1,-1,-1,-1
263,1758904298.1485806,25,0.1,90,277.3087174670491,66.49735417114374,1,-454.74264083553203,-244.70608607123984,-400.3013333333333,0.0,-1,-1,-1,-1,-1,-1
264,1758904301.694188,25,0.35,270,112.36298187325536,-1.0,0,-1.0,-1.0,-400.3013333333333,0.0,-1,-1,-1,-1,-1,-1
265,1758904304.6195495,25,0.2,270,214.09328697469624,104.66624283559644,1,-551.5548721101607,-27.3659324517632,-400.3013333333333,0.0,-1,-1,-1,-1,-1,-1
266,1758904308.1608737,25,0.2,90,177.24158170871996,161.3913468368588,1,-553.2591854742575,-184.38623527372306,-400.3013333333333,0.0,-1,-1,-1,-1,-1,-1
267,1758904311.7160819,25,0.1,90,243.7728339059346,111.85837627582046,1,-505.99299122609386,-234.41687792247225,-400.3013333333333,0.0,-1,-1,-1,-1,-1,-1
268,1758904315.31671,25,0.0,270,244.52328028764,121.22064330032815,1,-527.393846004648,-97.48165958428532,-400.3013333333333,0.0,-1,-1,-1,-1,-1,-1
269,1758904318.8648825,25,0.1,270,286.87152179700075,70.79779281599573,1,-376.1129118951601,-212.83661816830215,-400.3013333333333,0.0,-1,-1,-1,-1,-1,-1
270,1758904322.4857,25,0.1,270,196.22226111205003,100.28177596925168,1,-479.14425614819595,-150.27395364945414,-400.3013333333333,0.0,-1,-1,-1,-1,-1,-1
271,1758904326.0177107,25,0.35,90,194.35844426454915,122.63350244837828,1,-642.4087507161023,-162.06018518823493,-400.3013333333333,0.0,-1,-1,-1,-1,-1,-1
272,1758904329.573684,25,0.1,270,290.4730707235175,93.91006201685512,1,-642.4258715154626,-177.00325717360494,-400.3013333333333,0.0,-1,-1,-1,-1,-1,-1
273,1758904333.169072,25,0.6,90,297.5309629417805,62.760336142031385,1,-743.7483900157983,-125.00881984335693,-400.3013333333333,0.0,-1,-1,-1,-1,-1,-1
274,1758904336.686886,25,0.2,270,309.3113129646358,119.42153378201972,1,-616.2713800225797,36.62857218049854,-400.3013333333333,0.0,-1,-1,-1,-1,-1,-1
275,1758904340.291818,25,0.1,270,225.1445601988798,89.18951535723751,1,-467.1940671894381,-11.110500561646631,-400.3013333333333,0.0,-1,-1,-1,-1,-1,-1
276,1758904343.8117495,25,0.6,90,204.25605267916046,105.1578174753688,1,-642.9144770038496,-121.33011318486945,-400.3013333333333,0.0,-1,-1,-1,-1,-1,-1
277,1758904347.4117327,25,0.6,270,250.03686566056817,150.16662933334993,1,-459.5327483767004,-322.2920142324041,-400.3013333333333,0.0,-1,-1,-1,-1,-1,-1
278,1758904351.038596,25,0.35,270,257.6791836257935,19.82494732963866,1,-444.4784364298561,78.84578715905246,-400.3013333333333,0.0,-1,-1,-1,-1,-1,-1
279,1758904354.5438225,25,0.0,270,267.4198565237896,80.79294549099265,1,-363.8685310947644,-246.99882244704446,-400.3013333333333,0.0,-1,-1,-1,-1,-1,-1
280,1758904358.1783018,25,0.1,90,243.82285148204951,-1.0,0,-1.0,-1.0,-400.3013333333333,0.0,-1,-1,-1,-1,-1,-1
281,1758904361.0860648,25,0.6,90,220.4618869878956,68.26587881420777,1,-680.481394599861,-166.41409065739452,-400.3013333333333,0.0,-1,-1,-1,-1,-1,-1
282,1758904364.6770835,25,0.0,90,328.08067161119664,56.934479531425055,1,-404.80027412890763,-333.22675156086507,-400.3013333333333,0.0,-1,-1,-1,-1,-1,-1
283,1758904368.2555645,25,0.35,270,251.02466068818725,78.69385962485768,1,-484.3583020574797,-207.05529497521502,-400.3013333333333,0.0,-1,-1,-1,-1,-1,-1
284,1758904371.7656302,25,0.35,270,312.406564946288,69.51949035224823,1,-497.8137655764551,-115.63296090057595,-400.3013333333333,0.0,-1,-1,-1,-1,-1,-1
285,1758904375.3732517,25,0.0,90,187.3550345923591,89.95396265569727,1,-514.3624198480302,177.0128098864276,-400.3013333333333,0.0,-1,-1,-1,-1,-1,-1
286,1758904378.8852646,25,0.0,90,255.81078477192693,92.46130068805823,1,-508.9037230365645,9.172598404306882,-400.3013333333333,0.0,-1,-1,-1,-1,-1,-1
287,1758904382.483362,25,0.0,270,242.57282886800192,-1.0,0,-1.0,-1.0,-400.3013333333333,0.0,-1,-1,-1,-1,-1,-1
288,1758904385.3756435,25,0.6,90,253.31494108723246,84.88078311653007,1,-567.7453221568792,-49.32806154278259,-400.3013333333333,0.0,-1,-1,-1,-1,-1,-1
289,1758904388.9492896,25,0.6,90,327.30182670053415,113.05692832081371,1,-588.7846830057404,-28.385627081602735,-400.3013333333333,0.0,-1,-1,-1,-1,-1,-1
290,1758904392.5603747,25,0.6,90,277.2152080080408,130.0422541209012,1,-546.7495160955923,-2.106186407674514,-400.3013333333333,0.0,-1,-1,-1,-1,-1,-1
291,1758904396.067455,25,0.1,90,215.039739453064,124.49877877165262,1,-520.4700317485447,-81.41369801046255,-400.3013333333333,0.0,-1,-1,-1,-1,-1,-1
292,1758904399.6370065,25,0.1,270,288.15507443504544,129.5256452174818,1,-543.3264604638034,-212.0672187177396,-400.3013333333333,0.0,-1,-1,-1,-1,-1,-1
293,1758904403.1241364,25,0.6,270,241.1032513934406,118.40635175151587,1,-456.0426097687324,24.623693283553905,-400.3013333333333,0.0,-1,-1,-1,-1,-1,-1
294,1758904406.7094324,25,0.35,90,155.21265215917532,129.7332721645649,1,-645.2968324482275,106.66813357917749,-400.3013333333333,0.0,-1,-1,-1,-1,-1,-1
295,1758904410.260672,25,0.35,270,276.5055767473987,55.66416806151642,1,-493.3217206266497,-323.6956280951009,-400.3013333333333,0.0,-1,-1,-1,-1,-1,-1
296,1758904413.774908,25,0.2,270,295.80596379313306,109.51256982700588,1,-469.59526950450953,43.1098800696881,-400.3013333333333,0.0,-1,-1,-1,-1,-1,-1
297,1758904417.395805,25,0.35,270,345.71281203933376,103.39695212697661,1,-454.59826505568475,32.88576051913006,-400.3013333333333,0.0,-1,-1,-1,-1,-1,-1
298,1758904420.9014866,25,0.35,90,223.4642394005778,36.491670774038546,1,-557.3149294586924,-202.6400052332031,-400.3013333333333,0.0,-1,-1,-1,-1,-1,-1
299,1758904424.5164065,25,0.1,90,234.18875537063857,124.25404456793136,1,-470.70802136955945,-161.77129685151868,-400.3013333333333,0.0,-1,-1,-1,-1,-1,-1
300,1758904428.1265328,25,0.0,270,156.39845820400177,54.38644785880666,1,-575.4845266252121,-8.412558891090029,-400.3013333333333,0.0,-1,-1,-1,-1,-1,-1
301,1758904431.6374774,25,0.2,90,280.242886937458,111.19296500313212,1,-639.5199956499101,43.0198218575041,-400.3013333333333,0.0,-1,-1,-1,-1,-1,-1
302,1758904435.2644656,25,0.35,90,264.9240521046493,120.88072946408579,1,-642.7549643466289,-105.88135177911207,-400.3013333333333,0.0,-1,-1,-1,-1,-1,-1
303,1758904438.7885242,25,0.6,270,251.53898899490616,122.19482132802564,1,-541.7823100568171,-242.28471956279662,-400.3013333333333,0.0,-1,-1,-1,-1,-1,-1
304,1758904442.3672612,25,0.35,90,205.38374936258887,30.896968615859123,1,-361.5115792844492,-257.42005801088374,-400.3013333333333,0.0,-1,-1,-1,-1,-1,-1
305,1758904445.963111,25,0.35,270,230.95519753837337,72.79379048504858,1,-595.2525102793114,-170.5566785749652,-400.3013333333333,0.0,-1,-1,-1,-1,-1,-1
306,1758904449.4552627,25,0.35,270,225.60183353660258,139.44227575716735,1,-600.7596713903487,56.38196841619691,-400.3013333333333,0.0,-1,-1,-1,-1,-1,-1
307,1758904453.0595682,25,0.0,270,312.1516033880778,103.90877924770675,1,-581.7052154063036,-224.14256059928374,-400.3013333333333,0.0,-1,-1,-1,-1,-1,-1
308,1758904456.574067,25,0.0,90,356.86596143563577,99.00399862723002,1,-463.56795594580626,-41.26064761500757,-400.3013333333333,0.0,-1,-1,-1,-1,-1,-1
309,1758904460.1325262,25,0.35,90,195.2634475624308,71.15012405296872,1,-341.86851027954333,-132.8364245783052,-400.3013333333333,0.0,-1,-1,-1,-1,-1,-1
310,1758904463.6667912,25,0.35,90,213.1234185941818,115.52449828338894,1,-277.8718478909515,89.7937985337575,-400.3013333333333,0.0,-1,-1,-1,-1,-1,-1
311,1758904467.2446637,25,0.0,270,236.37016707079695,75.50011918433906,1,-689.5019411719127,-106.65547584162141,-400.3013333333333,0.0,-1,-1,-1,-1,-1,-1
312,1758904470.8525589,25,0.6,90,229.56906727402873,117.62284289133542,1,-672.9875493414054,-38.722759672923914,-400.3013333333333,0.0,-1,-1,-1,-1,-1,-1
313,1758904474.3520606,25,0.1,90,239.16728544581363,101.84434922412089,1,-511.56780649793666,-86.97000824858273,-400.3013333333333,0.0,-1,-1,-1,-1,-1,-1
314,1758904478.0160608,25,0.1,270,236.88222471073902,65.75323128674157,1,-769.9734071693879,-388.8529824793735,-400.3013333333333,0.0,-1,-1,-1,-1,-1,-1
315,1758904481.4923933,25,0.6,270,316.60722993788187,105.55930296968567,1,-571.496883692392,-26.21355861705635,-400.3013333333333,0.0,-1,-1,-1,-1,-1,-1
316,1758904485.081784,25,0.6,90,288.19016271373624,80.13907839217154,1,-271.6439316314295,-280.7390756381794,-400.3013333333333,0.0,-1,-1,-1,-1,-1,-1
317,1758904488.6914887,25,0.35,90,268.68080098937895,159.02483404914136,1,-488.8678549034594,-189.55054749954084,-400.3013333333333,0.0,-1,-1,-1,-1,-1,-1
318,1758904492.2286966,25,0.1,90,291.7545930790755,86.9098514003285,1,-343.51863082018747,-2.8906438476959835,-400.3013333333333,0.0,-1,-1,-1,-1,-1,-1
319,1758904495.8120918,25,0.0,90,246.98094435641497,97.4979820115866,1,-481.2442718573569,-59.36475362981374,-400.3013333333333,0.0,-1,-1,-1,-1,-1,-1
320,1758904499.3415205,25,0.1,270,284.40567395676555,71.52291484466487,1,-452.53052220710134,-44.51838376700058,-400.3013333333333,0.0,-1,-1,-1,-1,-1,-1
321,1758904502.8938885,25,0.1,270,232.73537673010082,90.79993818144183,1,-439.8925094917249,1.7117852326308878,-400.3013333333333,0.0,-1,-1,-1,-1,-1,-1
322,1758904506.5002763,25,0.6,90,227.95361163975636,164.94421963922892,1,-421.8886304259737,-166.13471747603805,-400.3013333333333,0.0,-1,-1,-1,-1,-1,-1
323,1758904509.9843757,25,0.1,90,122.63461462494793,108.92639904373331,1,-512.3128182632319,-112.97705242093407,-400.3013333333333,0.0,-1,-1,-1,-1,-1,-1
324,1758904513.5882914,25,0.6,270,283.2567730649169,60.94768390526678,1,-666.1632463780012,-239.18925477348358,-400.3013333333333,0.0,-1,-1,-1,-1,-1,-1
325,1758904517.0748928,25,0.0,270,294.21103691597443,86.77515599945427,1,-575.3292259996902,-89.44918270949772,-400.3013333333333,0.0,-1,-1,-1,-1,-1,-1
326,1758904520.6452768,25,0.0,90,251.54736752806747,91.84838781327193,1,-565.7838289112682,-362.5571989018043,-400.3013333333333,0.0,-1,-1,-1,-1,-1,-1
327,1758904524.1333084,25,0.2,90,268.25269005567947,137.1701817577013,1,-491.4060724345119,-113.60523781365892,-400.3013333333333,0.0,-1,-1,-1,-1,-1,-1
328,1758904527.764151,25,0.1,90,231.25575568593237,144.74968096264945,1,-434.2165351922011,-74.91035021571435,-400.3013333333333,0.0,-1,-1,-1,-1,-1,-1
329,1758904531.3288314,25,0.35,90,290.57815237166056,99.42949913550984,1,-500.8475830670325,6.319847604276447,-400.3013333333333,0.0,-1,-1,-1,-1,-1,-1
330,1758904534.8534114,25,0.6,270,280.0924465972961,55.30243726944702,1,-419.73951954165835,86.60163731971494,-400.3013333333333,0.0,-1,-1,-1,-1,-1,-1
331,1758904538.4533443,25,0.35,90,208.42222241168872,87.54016212691485,1,-546.6699607963191,-103.24610523543042,-400.3013333333333,0.0,-1,-1,-1,-1,-1,-1
332,1758904541.9402647,25,0.6,270,231.33095877210826,115.55415657697614,1,-564.831344840281,-65.33482660669748,-400.3013333333333,0.0,-1,-1,-1,-1,-1,-1
333,1758904545.6310496,25,0.6,90,233.01725655794132,88.93314106227838,1,-552.8019599626322,-45.54202127773127,-400.3013333333333,0.0,-1,-1,-1,-1,-1,-1
334,1758904549.2207296,25,0.0,90,192.1247602583096,153.12981154186312,1,-553.6043866368603,-143.19820767915724,-400.3013333333333,0.0,-1,-1,-1,-1,-1,-1
335,1758904552.7708135,25,0.35,270,208.20341854543096,125.29596799535287,1,-476.6436491172208,-140.28151170441294,-400.3013333333333,0.0,-1,-1,-1,-1,-1,-1
336,1758904556.3084183,25,0.6,270,232.30626737704392,85.90870360538591,1,-665.3064577322609,-203.30362464761674,-400.3013333333333,0.0,-1,-1,-1,-1,-1,-1
337,1758904559.7481596,25,0.1,90,261.9979488640777,72.21585516427146,1,-619.2389937549876,-154.38365693119118,-400.3013333333333,0.0,-1,-1,-1,-1,-1,-1
338,1758904563.3309705,25,0.35,90,294.4344213599643,34.51816050831869,1,-484.7895955364669,-74.35955039654887,-400.3013333333333,0.0,-1,-1,-1,-1,-1,-1
339,1758904566.928127,25,0.35,90,175.9354821766321,129.90108313754115,1,-584.2569489808103,-227.64320346586652,-400.3013333333333,0.0,-1,-1,-1,-1,-1,-1
340,1758904570.4362288,25,0.2,270,242.9380545065186,81.11542332046773,1,-510.9565492585526,-77.94685283565084,-400.3013333333333,0.0,-1,-1,-1,-1,-1,-1
341,1758904573.9720955,25,0.6,270,308.5916992797107,103.13898782924024,1,-477.20481789540634,-12.356417663088848,-400.3013333333333,0.0,-1,-1,-1,-1,-1,-1
342,1758904577.49202,25,0.0,90,273.45701264198186,88.00971148614218,1,-668.2634973482793,-360.81370867411306,-400.3013333333333,0.0,-1,-1,-1,-1,-1,-1
343,1758904581.1004746,25,0.6,90,182.24530968220768,72.26541234680603,1,-589.1502792503977,-118.24504591814957,-400.3013333333333,0.0,-1,-1,-1,-1,-1,-1
344,1758904584.6591148,25,0.6,270,221.6386709558607,131.21438531212945,1,-634.1255380623613,-290.8392466887834,-400.3013333333333,0.0,-1,-1,-1,-1,-1,-1
345,1758904588.1592228,25,0.1,270,275.32424439120683,101.39935490159961,1,-554.1535136318047,-134.44049601527112,-400.3013333333333,0.0,-1,-1,-1,-1,-1,-1
346,1758904591.7545145,25,0.0,90,235.89434673047427,75.79227151773517,1,-547.9969485878944,-148.2160358288289,-400.3013333333333,0.0,-1,-1,-1,-1,-1,-1
347,1758904595.2842977,25,0.0,90,236.25868283064088,74.35336266655611,1,-608.746166497173,-341.05704472041725,-400.3013333333333,0.0,-1,-1,-1,-1,-1,-1
348,1758904598.709524,25,0.0,270,253.33040859032064,113.46240999925803,1,-646.9200587776668,-213.72727963906786,-400.3013333333333,0.0,-1,-1,-1,-1,-1,-1
349,1758904602.0491958,25,0.6,270,288.27498620473324,115.76241287039299,1,-471.71631459853484,-261.76020131365283,-400.3013333333333,0.0,-1,-1,-1,-1,-1,-1
350,1758904605.4292874,25,0.1,270,309.85343441929854,139.4261564118386,1,-310.3264680868664,-118.09258272715546,-400.3013333333333,0.0,-1,-1,-1,-1,-1,-1
351,1758904608.8358765,25,0.35,90,317.81239140240064,115.91612179889776,1,-556.1222274091596,66.99179624847852,-400.3013333333333,0.0,-1,-1,-1,-1,-1,-1
352,1758904612.1611738,25,0.1,270,186.36600811067302,131.02858784835541,1,-499.63230074971574,-130.5656840116744,-400.3013333333333,0.0,-1,-1,-1,-1,-1,-1
353,1758904615.6044512,25,0.0,270,262.34373382803807,-1.0,0,-1.0,-1.0,-400.3013333333333,0.0,-1,-1,-1,-1,-1,-1
354,1758904618.2923884,25,0.6,90,213.1785626357774,92.59385453425067,1,-568.5600384868148,-30.902762418014404,-400.3013333333333,0.0,-1,-1,-1,-1,-1,-1
355,1758904621.6846182,25,0.1,270,259.79865175212774,-1.0,0,-1.0,-1.0,-400.3013333333333,0.0,-1,-1,-1,-1,-1,-1
356,1758904624.5267646,25,0.35,90,275.9668429518535,-1.0,0,-1.0,-1.0,-400.3013333333333,0.0,-1,-1,-1,-1,-1,-1
357,1758904627.2467127,25,0.1,270,271.37986874012535,53.21809045539726,1,-595.885422255116,-7.030066440090621,-400.3013333333333,0.0,-1,-1,-1,-1,-1,-1
358,1758904630.6543977,25,0.0,90,244.8945024560159,100.45851808618394,1,-572.5441777178103,-36.101761169853205,-400.3013333333333,0.0,-1,-1,-1,-1,-1,-1
359,1758904634.0185614,25,0.0,90,217.14872558145385,87.60195989411247,1,-569.8755633672947,-145.3769565008719,-400.3013333333333,0.0,-1,-1,-1,-1,-1,-1
360,1758904637.3932679,25,0.1,90,340.74467219974565,78.35993425239215,1,-358.1535434008045,-106.48091084535551,-400.3013333333333,0.0,-1,-1,-1,-1,-1,-1
361,1758904640.7744396,25,0.6,90,260.9350559364755,91.65460610342575,1,-537.3447625476373,-59.45642000792613,-400.3013333333333,0.0,-1,-1,-1,-1,-1,-1
362,1758904644.0534074,25,0.6,270,266.5448522004185,132.04135908898732,1,-543.067823673216,-24.03124697919428,-400.3013333333333,0.0,-1,-1,-1,-1,-1,-1
363,1758904647.4283805,25,0.6,270,247.11898553101545,-1.0,0,-1.0,-1.0,-400.3013333333333,0.0,-1,-1,-1,-1,-1,-1
364,1758904650.089835,25,0.0,90,290.663840318853,79.39719371846503,1,-584.8982948361236,-40.57563970687103,-400.3013333333333,0.0,-1,-1,-1,-1,-1,-1
365,1758904653.456359,25,0.0,270,312.91793995132883,107.71590557332947,1,-532.7462091551085,-237.12558011563658,-400.3013333333333,0.0,-1,-1,-1,-1,-1,-1
366,1758904656.7574182,25,0.2,90,321.58007975441234,70.5962409548529,1,-425.6740132665051,-1.057033453369712,-400.3013333333333,0.0,-1,-1,-1,-1,-1,-1
367,1758904660.0948918,25,0.35,90,277.06211382843844,118.27960977478772,1,-452.22313422041526,-3.6295651342687023,-400.3013333333333,0.0,-1,-1,-1,-1,-1,-1
368,1758904663.4231815,25,0.6,90,292.3930486824867,86.88193169304168,1,-615.2101586272033,-98.15338156181306,-400.3013333333333,0.0,-1,-1,-1,-1,-1,-1
369,1758904666.7581284,25,0.2,90,236.72500114760936,102.28187452031884,1,-410.52142591405135,-188.54576160696277,-400.3013333333333,0.0,-1,-1,-1,-1,-1,-1
370,1758904670.1921396,25,0.1,270,244.62835667893836,97.73171139431273,1,-596.5176447417181,-99.6656793516152,-400.3013333333333,0.0,-1,-1,-1,-1,-1,-1
371,1758904673.4772084,25,0.0,90,212.96868136630218,136.99870856046655,1,-410.4266405519863,40.674430509729945,-400.3013333333333,0.0,-1,-1,-1,-1,-1,-1
372,1758904677.0587363,25,0.0,90,318.72060960753697,141.4468142029445,1,-454.9840617924956,-58.565285019895526,-400.3013333333333,0.0,-1,-1,-1,-1,-1,-1
373,1758904680.4299917,25,0.6,270,184.37785052374144,85.9342071175238,1,-485.7171695195683,-200.34364779903524,-400.3013333333333,0.0,-1,-1,-1,-1,-1,-1
374,1758904683.7308517,25,0.1,270,279.9124579988286,101.8143996928373,1,-462.3876802549106,24.513758302539685,-400.3013333333333,0.0,-1,-1,-1,-1,-1,-1
375,1758904687.1205225,25,0.35,270,277.1888305783999,75.2243053248287,1,-658.3075138819513,-168.9522639676825,-400.3013333333333,0.0,-1,-1,-1,-1,-1,-1
376,1758904690.3810387,25,0.0,90,294.58320131535515,47.24775572195729,1,-292.1965575805284,-231.54640064530918,-400.3013333333333,0.0,-1,-1,-1,-1,-1,-1
377,1758904693.7788138,25,0.2,90,310.7121373894313,-1.0,0,-1.0,-1.0,-400.3013333333333,0.0,-1,-1,-1,-1,-1,-1
378,1758904696.5582054,25,0.35,90,190.3262757638861,-1.0,0,-1.0,-1.0,-400.3013333333333,0.0,-1,-1,-1,-1,-1,-1
379,1758904699.2830138,25,0.0,270,292.24081631271395,55.818049245244794,1,-422.99512893723085,-210.55394172711846,-400.3013333333333,0.0,-1,-1,-1,-1,-1,-1
380,1758904702.735785,25,0.35,270,211.99096596433202,110.014153275226,1,-535.1920351555768,-219.52716761386222,-400.3013333333333,0.0,-1,-1,-1,-1,-1,-1
381,1758904706.0514698,25,0.0,270,191.25636204894178,145.56281841738044,1,-446.17424361324765,-175.90011438098844,-400.3013333333333,0.0,-1,-1,-1,-1,-1,-1
382,1758904709.4567285,25,0.35,270,163.82036166246843,81.45470764930992,1,-575.6094002066222,-61.917348513865164,-400.3013333333333,0.0,-1,-1,-1,-1,-1,-1
383,1758904712.8355484,25,0.6,270,278.38820119354125,84.19636972950032,1,-647.9704463335738,-7.186593699336356,-400.3013333333333,0.0,-1,-1,-1,-1,-1,-1
384,1758904716.1141102,25,0.1,90,267.12198864879093,106.53189415173537,1,-513.0258150116956,-246.02912055094674,-400.3013333333333,0.0,-1,-1,-1,-1,-1,-1
385,1758904719.5372093,25,0.35,90,245.95581379375784,108.31665375371654,1,-396.7505603616787,100.71955981903278,-400.3013333333333,0.0,-1,-1,-1,-1,-1,-1
386,1758904722.850681,25,0.35,270,223.31800210194768,130.44060845844876,1,-596.5878521694777,-195.72773333458957,-400.3013333333333,0.0,-1,-1,-1,-1,-1,-1
387,1758904726.240277,25,0.1,270,259.0097259668662,58.42662207516055,1,-376.83308147390096,6.333243394658027,-400.3013333333333,0.0,-1,-1,-1,-1,-1,-1
388,1758904729.6311004,25,0.2,270,269.32380521521685,78.54143306641423,1,-285.69715690706346,154.3024265433312,-400.3013333333333,0.0,-1,-1,-1,-1,-1,-1
389,1758904733.0285566,25,0.2,270,296.10194160713627,148.23216765110192,1,-449.8673411036771,-43.70955318517882,-400.3013333333333,0.0,-1,-1,-1,-1,-1,-1
390,1758904736.5739152,25,0.1,270,207.36198206984173,91.70080306121214,1,-465.35924911680286,-75.79178684637735,-400.3013333333333,0.0,-1,-1,-1,-1,-1,-1
391,1758904739.8550794,25,0.35,90,250.54485102498313,82.52326624475516,1,-473.4725144178105,-110.4866790311747,-400.3013333333333,0.0,-1,-1,-1,-1,-1,-1
392,1758904743.2673776,25,0.2,90,214.11581156243153,131.10351233313037,1,-770.713824849846,-105.30391971609649,-400.3013333333333,0.0,-1,-1,-1,-1,-1,-1
393,1758904746.687502,25,0.1,270,308.3243468341228,55.46517829113003,1,-506.77924441491837,-65.06704900523752,-400.3013333333333,0.0,-1,-1,-1,-1,-1,-1
394,1758904750.1592212,25,0.6,90,152.28363393705627,170.7587982568976,1,-408.54787775516786,-137.56106251149336,-400.3013333333333,0.0,-1,-1,-1,-1,-1,-1
395,1758904753.6452343,25,0.1,90,364.7990212027662,98.37700419423949,1,-534.490996447918,-266.8892098001169,-400.3013333333333,0.0,-1,-1,-1,-1,-1,-1
396,1758904757.144337,25,0.35,270,256.21869828494914,79.85436131411484,1,-597.8799730057442,-147.99840026637787,-400.3013333333333,0.0,-1,-1,-1,-1,-1,-1
397,1758904760.6594298,25,0.0,90,294.3301044488724,127.84083801456,1,-477.5858678125147,-16.826452729178925,-400.3013333333333,0.0,-1,-1,-1,-1,-1,-1
398,1758904764.052384,25,0.6,90,333.55078049606686,105.37088330337367,1,-620.8220052137013,-113.84481734840942,-400.3013333333333,0.0,-1,-1,-1,-1,-1,-1
399,1758904767.5092635,25,0.35,270,269.3579320460678,76.54156849571679,1,-457.34325253345025,17.41084445741852,-400.3013333333333,0.0,-1,-1,-1,-1,-1,-1
400,1758904770.975167,25,0.2,270,319.1024080426252,33.1658932875565,1,-658.9671394976183,-105.11219497665112,-400.3013333333333,0.0,-1,-1,-1,-1,-1,-1
401,1758904774.3725092,25,0.2,90,300.0178840445444,65.58800201453755,1,-638.6796455839049,-208.80032296427345,-400.3013333333333,0.0,-1,-1,-1,-1,-1,-1
402,1758904777.8285954,25,0.1,270,231.8622007299346,84.87250633505226,1,-564.0875874417092,-77.87339819408766,-400.3013333333333,0.0,-1,-1,-1,-1,-1,-1
403,1758904781.1880999,25,0.1,90,282.8092109266753,64.17213365201428,1,-452.79497943747634,36.564332309855956,-400.3013333333333,0.0,-1,-1,-1,-1,-1,-1
404,1758904784.626807,25,0.0,270,266.5676126576919,101.44882155155715,1,-668.6793228251543,-179.143976642597,-400.3013333333333,0.0,-1,-1,-1,-1,-1,-1
405,1758904788.0946898,25,0.6,270,240.3375071310675,117.13897239591435,1,-477.15842742106236,-233.17016489367884,-400.3013333333333,0.0,-1,-1,-1,-1,-1,-1
406,1758904791.5500038,25,0.6,270,296.92875079608115,100.35718814198276,1,-319.40346663403864,-32.576531158460796,-400.3013333333333,0.0,-1,-1,-1,-1,-1,-1
407,1758904795.065274,25,0.1,270,169.28812226864105,36.50503724066839,1,-432.5243908722676,-123.20824041878392,-400.3013333333333,0.0,-1,-1,-1,-1,-1,-1
408,1758904798.5315535,25,0.2,270,259.0458915734928,129.01718946931672,1,-523.9684972273785,-180.8345532572336,-400.3013333333333,0.0,-1,-1,-1,-1,-1,-1
409,1758904801.9529123,25,0.0,90,316.85885087896725,112.55674330463371,1,-582.7315844161649,-160.50819921963247,-400.3013333333333,0.0,-1,-1,-1,-1,-1,-1
410,1758904805.4870377,25,0.6,270,300.2592035251705,84.0656893387623,1,-465.3147927457901,49.680706042320224,-400.3013333333333,0.0,-1,-1,-1,-1,-1,-1
411,1758904808.9900465,25,0.35,90,166.9693062279706,83.84297737788168,1,-513.1444662261529,-116.81205010397933,-400.3013333333333,0.0,-1,-1,-1,-1,-1,-1
412,1758904812.4044356,25,0.6,90,165.08577922882873,123.06081628057329,1,-429.18539778634835,-113.78300848165865,-400.3013333333333,0.0,-1,-1,-1,-1,-1,-1
413,1758904815.700665,25,0.35,90,240.64276776169646,85.41939042452233,1,-511.9028763115228,-48.16209930040358,-400.3013333333333,0.0,-1,-1,-1,-1,-1,-1
414,1758904819.1232138,25,0.2,270,230.30973242531002,96.45160030814338,1,-512.5725361885095,-48.831091562613075,-400.3013333333333,0.0,-1,-1,-1,-1,-1,-1
415,1758904822.5951352,25,0.35,270,252.84027688828206,139.1459108202771,1,-532.521347738452,-33.97315132864392,-400.3013333333333,0.0,-1,-1,-1,-1,-1,-1
416,1758904826.000114,25,0.6,90,196.95673962986595,91.82155364572812,1,-374.41447296834235,-295.3108886709207,-400.3013333333333,0.0,-1,-1,-1,-1,-1,-1
417,1758904829.4280193,25,0.6,270,292.6065059895047,90.9396763606472,1,-551.9128388044451,-135.8789530934377,-400.3013333333333,0.0,-1,-1,-1,-1,-1,-1
418,1758904832.7682383,25,0.2,270,258.35149156970385,92.01294766833165,1,-519.4148123115385,-91.12035169541782,-400.3013333333333,0.0,-1,-1,-1,-1,-1,-1
419,1758904836.212588,25,0.0,90,224.60334009970583,125.90651041766556,1,-335.36479732716157,-61.57466857618564,-400.3013333333333,0.0,-1,-1,-1,-1,-1,-1
420,1758904839.5559852,25,0.6,90,231.36809609275107,80.5428030285039,1,-499.8677688613891,-3.331971148106973,-400.3013333333333,0.0,-1,-1,-1,-1,-1,-1
421,1758904843.012079,25,0.35,90,283.9744141457513,112.82267775110645,1,-394.9596799735935,-61.35031756830319,-400.3013333333333,0.0,-1,-1,-1,-1,-1,-1
422,1758904846.444315,25,0.35,270,301.6263420383964,128.23129856156436,1,-461.98499803547304,-283.15821834973895,-400.3013333333333,0.0,-1,-1,-1,-1,-1,-1
423,1758904849.9243717,25,0.2,270,255.67498108394963,69.57425340177828,1,-404.4719779996616,-124.93382089177135,-400.3013333333333,0.0,-1,-1,-1,-1,-1,-1
424,1758904853.524125,25,0.6,270,209.0044484962041,84.61859010857808,1,-551.996758252176,7.322580275252335,-400.3013333333333,0.0,-1,-1,-1,-1,-1,-1
425,1758904857.0271661,25,0.1,270,291.111935723885,111.80801223094605,1,-392.43131498430796,113.54841865740431,-400.3013333333333,0.0,-1,-1,-1,-1,-1,-1
426,1758904860.562304,25,0.1,270,340.90465588315277,70.86687487058424,1,-544.1515338926905,-91.1090446169109,-400.3013333333333,0.0,-1,-1,-1,-1,-1,-1
427,1758904863.9970915,25,0.0,270,196.62655931979023,0.6094291216711412,1,-628.3063258561057,138.1050751171976,-400.3013333333333,0.0,-1,-1,-1,-1,-1,-1
428,1758904867.5048304,25,0.0,270,244.47801309280788,137.23243931973715,1,-475.2878395310914,-122.6515756114173,-400.3013333333333,0.0,-1,-1,-1,-1,-1,-1
429,1758904871.057084,25,0.2,270,288.3231838339713,49.734222100883905,1,-424.50047021575796,64.07907250695794,-400.3013333333333,0.0,-1,-1,-1,-1,-1,-1
430,1758904874.4942298,25,0.6,270,250.83404469249717,169.29578785048656,1,-636.4790918866519,-114.1689849729496,-400.3013333333333,0.0,-1,-1,-1,-1,-1,-1
431,1758904878.0613859,25,0.1,90,196.92041708611256,70.34265145256262,1,-372.67876801677755,-106.42843743147593,-400.3013333333333,0.0,-1,-1,-1,-1,-1,-1
432,1758904881.4884944,25,0.6,270,316.6990145203813,40.25603809542694,1,-571.4938911098546,30.339045530838035,-400.3013333333333,0.0,-1,-1,-1,-1,-1,-1
433,1758904885.0224001,25,0.0,270,264.07912803302736,64.18633957060953,1,-487.29767279785386,-259.57590066732473,-400.3013333333333,0.0,-1,-1,-1,-1,-1,-1
434,1758904888.523431,25,0.0,270,202.2916599629751,95.05079754893204,1,-394.8012994620443,106.18984183793867,-400.3013333333333,0.0,-1,-1,-1,-1,-1,-1
435,1758904892.0349267,25,0.0,270,284.60658028157684,142.08026794984983,1,-483.2136778061846,-80.85042273708609,-400.3013333333333,0.0,-1,-1,-1,-1,-1,-1
436,1758904895.5783029,25,0.1,270,311.4299780833614,103.0392565235509,1,-620.3353698047592,-39.357119172282225,-400.3013333333333,0.0,-1,-1,-1,-1,-1,-1
437,1758904899.074875,25,0.2,270,266.392883241395,58.543107989492306,1,-731.8562122576984,-42.847964370774264,-400.3013333333333,0.0,-1,-1,-1,-1,-1,-1
438,1758904902.7027357,25,0.35,270,229.35343972617176,81.5131407573385,1,-609.0205509483357,-164.56207950520724,-400.3013333333333,0.0,-1,-1,-1,-1,-1,-1
439,1758904906.1325166,25,0.35,270,346.13519739034354,131.91295198833606,1,-760.8868417971585,-280.72839290658567,-400.3013333333333,0.0,-1,-1,-1,-1,-1,-1
440,1758904909.6048756,25,0.1,90,209.25795899388365,104.98181022484586,1,-587.7567200216737,-31.92208690569177,-400.3013333333333,0.0,-1,-1,-1,-1,-1,-1
441,1758904913.053134,25,0.2,270,308.8112521879947,81.70613618333456,1,-420.0599528957964,-8.839752093287046,-400.3013333333333,0.0,-1,-1,-1,-1,-1,-1
442,1758904916.3849795,25,0.1,90,274.9060436060589,107.12127626712838,1,-562.8757972126455,-114.22544283052592,-400.3013333333333,0.0,-1,-1,-1,-1,-1,-1
443,1758904919.8233604,25,0.0,90,252.82334520677335,95.76079823233586,1,-504.13338616458304,68.98899917872973,-400.3013333333333,0.0,-1,-1,-1,-1,-1,-1
444,1758904923.150079,25,0.2,90,170.33504017925094,134.17852731945268,1,-592.7482708707553,-56.51369831878798,-400.3013333333333,0.0,-1,-1,-1,-1,-1,-1
445,1758904926.561127,25,0.6,90,267.3087874589231,101.9862609077517,1,-431.8606127286954,-205.3873509925428,-400.3013333333333,0.0,-1,-1,-1,-1,-1,-1
446,1758904929.923858,25,0.2,90,273.12843459589106,81.05771386682939,1,-505.26264542402,23.491505831078968,-400.3013333333333,0.0,-1,-1,-1,-1,-1,-1
447,1758904933.3786051,25,0.0,90,275.2452662172878,78.561502757243,1,-608.647121293068,-278.66634888110434,-400.3013333333333,0.0,-1,-1,-1,-1,-1,-1
448,1758904936.7397666,25,0.2,270,230.95771663327795,115.70134163029316,1,-442.30666589068386,-209.23372943756843,-400.3013333333333,0.0,-1,-1,-1,-1,-1,-1
449,1758904940.2236137,25,0.35,270,324.04012877126985,87.76441056501369,1,-481.04384557609905,-382.74130302477624,-400.3013333333333,0.0,-1,-1,-1,-1,-1,-1
450,1758904943.823673,25,0.1,90,318.9870561660853,73.67988245165388,1,-374.1815857491586,-293.1012664589772,-400.3013333333333,0.0,-1,-1,-1,-1,-1,-1
451,1758904947.3643286,25,0.0,90,226.38695418341823,136.7580946740647,1,-414.4998105953415,-280.14272665225985,-400.3013333333333,0.0,-1,-1,-1,-1,-1,-1
452,1758904950.9577463,25,0.2,90,236.4361220629716,73.40914832475717,1,-611.8816884649425,-35.9815681012048,-400.3013333333333,0.0,-1,-1,-1,-1,-1,-1
453,1758904954.4389975,25,0.35,270,235.88755339437458,91.77672777447424,1,-501.17300049860967,-175.1670116007,-400.3013333333333,0.0,-1,-1,-1,-1,-1,-1
454,1758904958.046381,25,0.0,90,337.33810018618885,144.82082951145568,1,-547.4111206097326,-347.8392405216932,-400.3013333333333,0.0,-1,-1,-1,-1,-1,-1
455,1758904961.651348,25,0.1,270,210.5996266420962,107.82920774816301,1,-573.9522141766128,-274.263310701304,-400.3013333333333,0.0,-1,-1,-1,-1,-1,-1
456,1758904964.93295,25,0.0,90,257.0505609890671,33.11758351555629,1,-446.11918466896145,-120.81072079921293,-400.3013333333333,0.0,-1,-1,-1,-1,-1,-1
457,1758904968.3058815,25,0.2,90,256.4796504726317,65.59649718489844,1,-350.3242076104783,-119.6918234116215,-400.3013333333333,0.0,-1,-1,-1,-1,-1,-1
458,1758904971.618673,25,0.2,270,291.2322546180157,125.0211784723191,1,-550.64202489442,-80.72477338529798,-400.3013333333333,0.0,-1,-1,-1,-1,-1,-1
459,1758904975.0029685,25,0.35,90,189.11269049490508,127.48446363087444,1,-512.0303746491171,-57.82599824399197,-400.3013333333333,0.0,-1,-1,-1,-1,-1,-1
460,1758904978.303075,25,0.0,270,238.49085568781985,63.00133848317987,1,-562.2681384304899,-63.22508544312607,-400.3013333333333,0.0,-1,-1,-1,-1,-1,-1
461,1758904981.6704283,25,0.35,270,203.71650829405792,76.39978013543319,1,-594.8384563165353,-55.9722045114056,-400.3013333333333,0.0,-1,-1,-1,-1,-1,-1
462,1758904985.6232479,25,0.6,90,267.76743856589115,89.94648276091165,1,-596.3493817382138,-211.57236652435813,-400.3013333333333,0.0,-1,-1,-1,-1,-1,-1
463,1758904989.020521,25,0.2,270,262.33261384364096,80.77801421594037,1,-458.98584822392604,-197.88516693264728,-400.3013333333333,0.0,-1,-1,-1,-1,-1,-1
464,1758904993.5131514,25,0.6,90,266.6899852262466,108.94862769388182,1,-627.2827715182477,-125.87445258326167,-400.3013333333333,0.0,-1,-1,-1,-1,-1,-1
465,1758904996.9311914,25,0.1,270,293.97085013080255,-1.0,0,-1.0,-1.0,-400.3013333333333,0.0,-1,-1,-1,-1,-1,-1
466,1758904999.7475502,25,0.2,90,346.68460826460296,56.877055031141246,1,-484.7314517948312,-174.38630079192984,-400.3013333333333,0.0,-1,-1,-1,-1,-1,-1
467,1758905003.0946374,25,0.0,270,177.5750287206584,119.83866426545714,1,-535.978802399911,115.66486530567096,-400.3013333333333,0.0,-1,-1,-1,-1,-1,-1
468,1758905006.46262,25,0.6,90,193.2562994470596,82.61164191478669,1,-414.451481128102,-203.9923264035299,-400.3013333333333,0.0,-1,-1,-1,-1,-1,-1
469,1758905009.8276176,25,0.0,90,254.68620502195267,83.04780901249497,1,-485.5808030204853,-201.45794242197596,-400.3013333333333,0.0,-1,-1,-1,-1,-1,-1
470,1758905013.124154,25,0.0,90,246.76883720020828,61.25938002970339,1,-384.7886502581547,-55.94973094055525,-400.3013333333333,0.0,-1,-1,-1,-1,-1,-1
471,1758905016.5143657,25,0.1,270,291.8949317545232,151.17522121885895,1,-503.42780639749935,-19.376194285963237,-400.3013333333333,0.0,-1,-1,-1,-1,-1,-1
472,1758905019.79483,25,0.35,90,266.09560485940085,82.53410804430135,1,-487.14610578538566,-185.6033510173589,-400.3013333333333,0.0,-1,-1,-1,-1,-1,-1
473,1758905023.1542835,25,0.2,270,223.28164945012455,83.85731641907982,1,-414.6206475283812,-156.37167490109476,-400.3013333333333,0.0,-1,-1,-1,-1,-1,-1
474,1758905026.4190364,25,0.6,90,212.23086758493795,132.64624496772777,1,-619.2204798874255,-132.75368605560504,-400.3013333333333,0.0,-1,-1,-1,-1,-1,-1
475,1758905029.79832,25,0.35,90,214.79486989825972,-1.0,0,-1.0,-1.0,-400.3013333333333,0.0,-1,-1,-1,-1,-1,-1
476,1758905032.5595024,25,0.2,90,267.41636472697996,-1.0,0,-1.0,-1.0,-400.3013333333333,0.0,-1,-1,-1,-1,-1,-1
477,1758905035.2488587,25,0.6,90,195.9856189805657,125.46256842443101,1,-530.2064161072184,-312.87164677112014,-400.3013333333333,0.0,-1,-1,-1,-1,-1,-1
478,1758905038.6438832,25,0.6,90,268.5141298062375,124.46737184219789,1,-431.5259366297806,-141.35204256426587,-400.3013333333333,0.0,-1,-1,-1,-1,-1,-1
479,1758905041.9073012,25,0.0,270,183.11184711709765,109.56442122307348,1,-337.28361193038484,-190.91265200403484,-400.3013333333333,0.0,-1,-1,-1,-1,-1,-1
480,1758905045.2676647,25,0.35,90,110.06540517891901,131.77660994492476,1,-396.4894877970844,-68.02070228166338,-400.3013333333333,0.0,-1,-1,-1,-1,-1,-1
481,1758905048.5966938,25,0.2,270,246.63367808616067,125.81728969775928,1,-690.3000599059048,-216.3485519247775,-400.3013333333333,0.0,-1,-1,-1,-1,-1,-1
482,1758905051.924181,25,0.6,270,247.1177154785684,76.19563725224711,1,-496.5882408838649,-151.8576051492269,-400.3013333333333,0.0,-1,-1,-1,-1,-1,-1
483,1758905055.2200186,25,0.0,90,248.68848920714694,97.65131139073364,1,-427.34844252966565,-313.9416667705447,-400.3013333333333,0.0,-1,-1,-1,-1,-1,-1
484,1758905058.5104947,25,0.1,270,290.6505096619978,128.36399529133107,1,-408.11890278317486,-159.6230582041049,-400.3013333333333,0.0,-1,-1,-1,-1,-1,-1
485,1758905061.8765812,25,0.2,270,260.6016354684846,107.49491108468354,1,-501.78673609558336,-129.94934196727758,-400.3013333333333,0.0,-1,-1,-1,-1,-1,-1
486,1758905065.150038,25,0.0,270,207.50994309989176,127.87319985822182,1,-425.2022338354846,-127.0227983213983,-400.3013333333333,0.0,-1,-1,-1,-1,-1,-1
487,1758905068.5272212,25,0.0,90,168.07249732131802,-1.0,0,-1.0,-1.0,-400.3013333333333,0.0,-1,-1,-1,-1,-1,-1
488,1758905071.3010387,25,0.6,90,261.2978856679433,99.16388280064932,1,-489.5280466352457,-143.45283931270546,-400.3013333333333,0.0,-1,-1,-1,-1,-1,-1
489,1758905074.5970457,25,0.6,90,272.9522570171099,127.13835751740663,1,-566.3718188179412,-34.34175742355551,-400.3013333333333,0.0,-1,-1,-1,-1,-1,-1
490,1758905077.9860365,25,0.1,90,284.8917513806101,84.75306160441856,1,-317.6622198336331,-246.64985523035938,-400.3013333333333,0.0,-1,-1,-1,-1,-1,-1
491,1758905081.2827804,25,0.2,270,319.96585756753234,98.38616596117974,1,-611.9192350535756,-36.6064299795179,-400.3013333333333,0.0,-1,-1,-1,-1,-1,-1
492,1758905084.6383052,25,0.2,270,365.98102911560954,136.08931411949615,1,-497.9367623605791,7.495762359943754,-400.3013333333333,0.0,-1,-1,-1,-1,-1,-1
493,1758905087.9548385,25,0.0,270,213.58313966393624,147.12909310200877,1,-514.4240991554823,-270.57755279002026,-400.3013333333333,0.0,-1,-1,-1,-1,-1,-1
494,1758905091.379974,25,0.2,270,185.9515412542217,98.11602986538192,1,-369.9638533344288,-233.46590970364406,-400.3013333333333,0.0,-1,-1,-1,-1,-1,-1
495,1758905094.8472342,25,0.0,90,282.7766826741606,136.97536344197422,1,-617.7564461938747,-327.36156068512196,-400.3013333333333,0.0,-1,-1,-1,-1,-1,-1
496,1758905098.110151,25,0.1,90,257.5856370447074,95.33065383714163,1,-543.4124524589956,45.4618804585146,-400.3013333333333,0.0,-1,-1,-1,-1,-1,-1
497,1758905101.5235143,25,0.6,270,235.26409035195488,133.3756199274373,1,-497.209985990585,-123.23353789538983,-400.3013333333333,0.0,-1,-1,-1,-1,-1,-1
498,1758905104.8298755,25,0.2,270,295.0469027825173,132.9857979314129,1,-490.17981574972407,34.83625648297672,-400.3013333333333,0.0,-1,-1,-1,-1,-1,-1
499,1758905108.2286477,25,0.2,90,180.11826610283129,153.85243680764782,1,-657.9197252910985,189.37077265287218,-400.3013333333333,0.0,-1,-1,-1,-1,-1,-1
500,1758905111.5398388,25,0.1,90,261.86356030066594,-1.0,0,-1.0,-1.0,-400.3013333333333,0.0,-1,-1,-1,-1,-1,-1
501,1758905114.2922764,25,0.1,90,193.57235863498033,93.24635408202208,1,-441.01470831150664,-298.840785501484,-400.3013333333333,0.0,-1,-1,-1,-1,-1,-1
502,1758905117.698,25,0.2,90,314.91644835106683,46.062231164778204,1,-637.8229469858445,-164.52857750331157,-400.3013333333333,0.0,-1,-1,-1,-1,-1,-1
503,1758905121.018751,25,0.6,270,298.7231560501615,103.27622907186482,1,-413.41564409666927,18.840284395327714,-400.3013333333333,0.0,-1,-1,-1,-1,-1,-1
504,1758905124.4047422,25,0.6,270,265.9759690416064,101.3696247681557,1,-246.02533254539912,-83.77985160212657,-400.3013333333333,0.0,-1,-1,-1,-1,-1,-1
505,1758905127.71516,25,0.1,90,212.6469307370008,116.96036949536852,1,-474.0200779019208,97.2474755255925,-400.3013333333333,0.0,-1,-1,-1,-1,-1,-1
506,1758905131.103742,25,0.35,90,223.14735862136507,71.82572028421612,1,-435.3648901479447,-64.41208425886833,-400.3013333333333,0.0,-1,-1,-1,-1,-1,-1
507,1758905134.4821389,25,0.2,90,256.7042375144239,90.63140557185201,1,-465.6932026983736,-84.31497051050852,-400.3013333333333,0.0,-1,-1,-1,-1,-1,-1
508,1758905137.7636642,25,0.6,90,266.53842081720717,80.89225885375198,1,-744.2514478998348,-0.9754739728825257,-400.3013333333333,0.0,-1,-1,-1,-1,-1,-1
509,1758905141.137595,25,0.1,270,305.51983656410187,112.90630576773019,1,-719.3211583330387,-79.66295559554618,-400.3013333333333,0.0,-1,-1,-1,-1,-1,-1
510,1758905144.4940164,25,0.1,270,230.3958016849051,105.52639850434751,1,-409.4023754928702,-49.796134748526725,-400.3013333333333,0.0,-1,-1,-1,-1,-1,-1
511,1758905147.869643,25,0.0,90,264.82816453842867,124.9517440322189,1,-496.5598540527177,-236.45897665875503,-400.3013333333333,0.0,-1,-1,-1,-1,-1,-1
512,1758905151.1558828,25,0.1,90,208.81583003971653,93.11621055951126,1,-441.6490747837136,-277.6306446015968,-400.3013333333333,0.0,-1,-1,-1,-1,-1,-1
513,1758905154.5804365,25,0.6,270,172.98701546775828,109.05654459326146,1,-475.8121133980944,-174.0550470771263,-400.3013333333333,0.0,-1,-1,-1,-1,-1,-1
514,1758905157.9555607,25,0.2,90,251.99083110766892,37.865762150066324,1,-651.3907622665373,-143.03503812411387,-400.3013333333333,0.0,-1,-1,-1,-1,-1,-1
515,1758905161.229499,25,0.6,90,359.7677550754827,50.29878999718443,1,-575.743207043637,-151.73707200312236,-400.3013333333333,0.0,-1,-1,-1,-1,-1,-1
516,1758905164.59553,25,0.1,90,292.08183779981204,80.64510855768036,1,-669.5224981055712,-22.9793150592089,-400.3013333333333,0.0,-1,-1,-1,-1,-1,-1
517,1758905167.8376803,25,0.0,90,308.0960956962188,59.24205071540387,1,-550.6076381816238,-9.51101102856255,-400.3013333333333,0.0,-1,-1,-1,-1,-1,-1
518,1758905171.1989484,25,0.2,270,277.45891360418295,147.9774009003087,1,-403.99089998515564,4.071538965095172,-400.3013333333333,0.0,-1,-1,-1,-1,-1,-1
519,1758905174.4989514,25,0.0,90,285.4301456716271,79.56841849102359,1,-554.9516621924743,-72.06207718572011,-400.3013333333333,0.0,-1,-1,-1,-1,-1,-1
520,1758905177.8868742,25,0.2,270,278.71482997240963,92.39470271073425,1,-266.73753780364393,-234.03201200090297,-400.3013333333333,0.0,-1,-1,-1,-1,-1,-1
521,1758905181.2790897,25,0.2,270,265.05273398213006,113.44775924826618,1,-552.570225470804,-90.64292473627683,-400.3013333333333,0.0,-1,-1,-1,-1,-1,-1
522,1758905184.5837855,25,0.2,90,245.3845150228443,90.95312372552428,1,-369.87502820083574,-52.39851811510251,-400.3013333333333,0.0,-1,-1,-1,-1,-1,-1
523,1758905187.9826107,25,0.2,270,197.84312343825889,101.5190871321894,1,-631.7208963386872,69.78066503717926,-400.3013333333333,0.0,-1,-1,-1,-1,-1,-1
524,1758905191.2933362,25,0.35,270,286.092867764273,85.1296080943328,1,-496.18943912876614,-229.32361643217774,-400.3013333333333,0.0,-1,-1,-1,-1,-1,-1
525,1758905194.6435182,25,0.2,270,229.36979365723124,61.10713613623816,1,-556.7445224664962,-143.98750893428132,-400.3013333333333,0.0,-1,-1,-1,-1,-1,-1
526,1758905197.9398234,25,0.6,270,257.34524038483704,135.9990990023673,1,-355.77857721424925,-62.91858676334367,-400.3013333333333,0.0,-1,-1,-1,-1,-1,-1
527,1758905201.2977488,25,0.35,270,229.43379576919045,69.14524440295949,1,-619.4675422360725,-110.95143996639405,-400.3013333333333,0.0,-1,-1,-1,-1,-1,-1
528,1758905204.6414237,25,0.0,90,261.3691607774704,14.841487017651048,1,-537.7962619004975,-33.47527367197087,-400.3013333333333,0.0,-1,-1,-1,-1,-1,-1
529,1758905207.9241967,25,0.0,270,344.09468111729154,117.1257923715429,1,-508.9108885484437,-226.83037212408232,-400.3013333333333,0.0,-1,-1,-1,-1,-1,-1
530,1758905211.390013,25,0.6,90,341.0794792126046,86.12723570678025,1,-499.3112619640337,-70.86728757624866,-400.3013333333333,0.0,-1,-1,-1,-1,-1,-1
531,1758905214.658867,25,0.35,270,234.36833988186834,86.42075437359931,1,-594.4306436378675,-82.73918349546582,-400.3013333333333,0.0,-1,-1,-1,-1,-1,-1
532,1758905218.0166614,25,0.6,270,238.2049429776603,82.97809874319127,1,-471.69565888402065,37.194246652267395,-400.3013333333333,0.0,-1,-1,-1,-1,-1,-1
533,1758905221.2836251,25,0.35,90,253.28240543298122,123.34423782853784,1,-553.7725252094268,-136.59884162160668,-400.3013333333333,0.0,-1,-1,-1,-1,-1,-1
