trial_index,trial_start_time,trial_start_tracker_time,speed,coherence,direction,saccade_rt,saccade_duration,correct,saccade_x,saccade_y,saccade_start_x,saccade_start_y,stim_x,stim_y,fix_onset,fix_onset_tracker,stim_onset,stim_onset_tracker,stim_offset,stim_offset_tracker,saccade_onset,saccade_onset_tracker,fix_x,fix_y
1,1758916688.8378673,266512057.0,16,0.0,270,272.39394187927246,0.004464149475097656,1,-183.5,136.0,-165.20001220703125,-113.20001220703125,-200.15066666666664,160.12053333333333,1758916689.160678,266512589.0,1758916689.7612765,266512980.0,1758916690.0430942,266513263.0,1758916690.0336704,266513253.0,0,0
2,1758916692.1221602,266515341.0,16,0.0,90,9.360790252685547,0.005208015441894531,1,-183.29998779296875,171.79998779296875,-122.79998779296875,-119.29998779296875,-200.15066666666664,160.12053333333333,1758916692.3106945,266515730.0,1758916693.3335407,266516553.0,1758916693.3529446,266516572.0,1758916693.3429015,266516562.0,0,0
3,1758916695.4986525,266518717.0,16,0.35,90,202.81386375427246,0.005018711090087891,1,-178.20001220703125,184.29998779296875,-100.5999755859375,-107.89999389648438,-200.15066666666664,160.12053333333333,1758916695.7256465,266519149.0,1758916696.510572,266519730.0,1758916696.723209,266519942.0,1758916696.7133858,266519932.0,0,0
4,1758916698.7453911,266521964.0,16,0.6,90,278.3777713775635,0.00527501106262207,1,-143.5999755859375,114.5,-75.29998779296875,-58.79998779296875,-200.15066666666664,160.12053333333333,1758916698.8812637,266522318.0,1758916699.4644787,266522684.0,1758916699.7531142,266522972.0,1758916699.7428565,266522962.0,0,0
5,1758916701.901265,266525121.0,16,0.0,270,279.31928634643555,0.005081653594970703,1,-195.0,135.60000610351562,-158.79998779296875,-116.39999389648438,-200.15066666666664,160.12053333333333,1758916702.2314463,266525664.0,1758916703.1336722,266526352.0,1758916703.4227607,266526642.0,1758916703.4129915,266526632.0,0,0
6,1758916705.6381154,266528857.0,16,0.2,90,204.76722717285156,0.005620241165161133,1,-174.5,170.5,-71.20001220703125,-64.89999389648438,-200.15066666666664,160.12053333333333,1758916705.872154,266529304.0,1758916706.7881403,266530007.0,1758916707.0026557,266530222.0,1758916706.9929075,266530212.0,0,0
7,1758916709.208813,266532428.0,16,0.0,90,240.10086059570312,0.005455970764160156,1,-196.0,157.29998779296875,-64.20001220703125,-61.29998779296875,-200.15066666666664,160.12053333333333,1758916709.5588307,266532990.0,1758916710.4932315,266533713.0,1758916710.7470956,266533966.0,1758916710.7333324,266533952.0,0,0
8,1758916712.9537656,266536173.0,16,0.35,270,216.14432334899902,0.005462169647216797,1,-157.4000244140625,141.10000610351562,-61.4000244140625,-58.20001220703125,-200.15066666666664,160.12053333333333,1758916713.1735275,266536609.0,1758916714.1464796,266537365.0,1758916714.3726807,266537592.0,1758916714.362624,266537582.0,0,0
9,1758916716.6704445,266539889.0,16,0.1,90,202.76808738708496,0.005437612533569336,1,-180.79998779296875,208.29998779296875,-52.29998779296875,-66.5,-200.15066666666664,160.12053333333333,1758916716.958218,266540393.0,1758916717.9206505,266541140.0,1758916718.13726,266541356.0,1758916718.1234186,266541343.0,0,0
10,1758916720.5838945,266543801.0,16,0.35,270,228.8966178894043,0.0044460296630859375,1,-206.20001220703125,146.10000610351562,-136.79998779296875,-85.0,-200.15066666666664,160.12053333333333,1758916720.7631154,266544197.0,1758916721.4239354,266544643.0,1758916721.6642778,266544883.0,1758916721.652832,266544872.0,0,0
11,1758916724.2320995,266547451.0,16,0.2,270,261.41977310180664,0.005650997161865234,1,-195.0,139.0,-154.4000244140625,-107.89999389648438,-200.15066666666664,160.12053333333333,1758916724.2345304,266547655.0,1758916724.8109689,266548030.0,1758916725.0820124,266548301.0,1758916725.0723886,266548291.0,0,0
12,1758916727.3858018,266550605.0,16,0.35,90,270.723819732666,0.005460023880004883,1,-163.5,178.39999389648438,-137.4000244140625,-131.89999389648438,-200.15066666666664,160.12053333333333,1758916727.3902524,266550827.0,1758916728.041146,266551260.0,1758916728.3218186,266551541.0,1758916728.3118699,266551531.0,0,0
13,1758916730.5991259,266553818.0,16,0.35,90,221.04763984680176,0.005396366119384766,1,-185.79998779296875,154.20001220703125,-182.70001220703125,-118.20001220703125,-200.15066666666664,160.12053333333333,1758916730.9453366,266554379.0,1758916731.451809,266554671.0,1758916731.6852617,266554904.0,1758916731.6728566,266554892.0,0,0
14,1758916734.0579917,266557277.0,16,0.1,90,205.52825927734375,0.00445103645324707,1,-194.79998779296875,182.70001220703125,-154.5999755859375,-138.0,-200.15066666666664,160.12053333333333,1758916734.3960643,266557832.0,1758916735.3165727,266558536.0,1758916735.5316968,266558751.0,1758916735.522101,266558741.0,0,0
15,1758916737.746943,266560966.0,16,0.2,90,228.5754680633545,0.005280017852783203,1,-171.0,165.0,-70.5,-63.79998779296875,-200.15066666666664,160.12053333333333,1758916738.0028782,266561431.0,1758916738.8934374,266562111.0,1758916739.131466,266562351.0,1758916739.1220129,266562341.0,0,0
16,1758916741.5093842,266564729.0,16,0.35,270,234.33661460876465,0.005457878112792969,1,-178.70001220703125,159.29998779296875,-162.4000244140625,-140.10000610351562,-200.15066666666664,160.12053333333333,1758916741.8422446,266565272.0,1758916742.6769788,266565896.0,1758916742.9214168,266566141.0,1758916742.9113154,266566131.0,0,0
17,1758916745.2728431,266568492.0,16,0.35,90,238.4781837463379,0.005293846130371094,1,-167.79998779296875,169.20001220703125,-90.70001220703125,-87.10000610351562,-200.15066666666664,160.12053333333333,1758916745.6006677,266569036.0,1758916746.1528244,266569372.0,1758916746.4011755,266569620.0,1758916746.3913026,266569610.0,0,0
18,1758916748.7976074,266572017.0,16,0.2,270,273.15306663513184,0.004402875900268555,1,-216.29998779296875,138.10000610351562,-189.0,-114.70001220703125,-200.15066666666664,160.12053333333333,1758916749.068442,266572504.0,1758916749.6784878,266572898.0,1758916749.9616451,266573181.0,1758916749.9516408,266573171.0,0,0
19,1758916752.2023966,266575422.0,16,0.2,90,251.04737281799316,0.005806684494018555,1,-166.20001220703125,181.10000610351562,-135.79998779296875,-156.29998779296875,-200.15066666666664,160.12053333333333,1758916752.3652563,266575788.0,1758916753.1213284,266576341.0,1758916753.385947,266576605.0,1758916753.3723757,266576591.0,0,0
20,1758916755.690586,266578909.0,16,0.0,270,203.59206199645996,0.005570411682128906,1,-202.79998779296875,165.70001220703125,-107.79998779296875,-83.20001220703125,-200.15066666666664,160.12053333333333,1758916755.9097252,266579332.0,1758916756.7375956,266579957.0,1758916756.9508348,266580170.0,1758916756.9411876,266580160.0,0,0
21,1758916759.278379,266582498.0,16,0.6,90,220.08872032165527,0.005435943603515625,1,-146.70001220703125,182.39999389648438,-120.20001220703125,-156.79998779296875,-200.15066666666664,160.12053333333333,1758916759.2843432,266582723.0,1758916760.141822,266583361.0,1758916760.3760073,266583595.0,1758916760.3619108,266583581.0,0,0
22,1758916762.6608913,266585880.0,16,0.2,270,234.44819450378418,0.0059397220611572266,1,-210.9000244140625,174.5,-132.5999755859375,-122.89999389648438,-200.15066666666664,160.12053333333333,1758916762.8419158,266586272.0,1758916763.6262376,266586846.0,1758916763.8707373,266587090.0,1758916763.8606858,266587080.0,0,0
23,1758916766.2816184,266589501.0,16,0.6,270,251.97696685791016,0.005471706390380859,1,-171.0999755859375,164.60000610351562,-76.79998779296875,-95.10000610351562,-200.15066666666664,160.12053333333333,1758916766.500685,266589922.0,1758916767.4494026,266590669.0,1758916767.714676,266590934.0,1758916767.7013795,266590921.0,0,0
24,1758916770.1800878,266593399.0,16,0.6,270,-1.0,-1.0,0,-1.0,-1.0,-1.0,-1.0,-200.15066666666664,160.12053333333333,1758916770.1820755,266593622.0,-1.0,-1.0,-1.0,-1.0,-1.0,-1.0,0,0
