trial_index,trial_start_time,trial_start_tracker_time,speed,coherence,direction,saccade_rt,saccade_duration,correct,saccade_x,saccade_y,saccade_start_x,saccade_start_y,stim_x,stim_y,fix_onset,fix_onset_tracker,stim_onset,stim_onset_tracker,stim_offset,stim_offset_tracker,saccade_onset,saccade_onset_tracker,fix_x,fix_y
1,1758916869.0774045,266692297.0,16,0.35,90,-1.0,-1.0,0,-1.0,-1.0,-1.0,-1.0,-200.15066666666664,160.12053333333333,-1.0,-1.0,-1.0,-1.0,-1.0,-1.0,-1.0,-1.0,,
3,1758916890.4776316,266713697.0,16,0.2,90,289.7641658782959,0.0049974918365478516,1,-178.5999755859375,162.5,-101.70001220703125,-103.60000610351562,-200.15066666666664,160.12053333333333,1758916890.8338156,266714267.0,1758916891.3572016,266714577.0,1758916891.6567736,266714876.0,1758916891.6469657,266714867.0,0.0,0.0
4,1758916893.6052086,266716825.0,16,0.6,90,241.69516563415527,0.0052449703216552734,1,-167.79998779296875,193.89999389648438,-122.9000244140625,-121.10000610351562,-200.15066666666664,160.12053333333333,1758916893.77247,266717211.0,1758916894.3350434,266717554.0,1758916894.5864456,266717806.0,1758916894.5767386,266717796.0,0.0,0.0
5,1758916896.51711,266719737.0,16,0.1,90,230.40390014648438,0.0048978328704833984,1,-166.0999755859375,183.39999389648438,-81.79998779296875,-132.29998779296875,-200.15066666666664,160.12053333333333,1758916896.7370253,266720171.0,1758916897.6063483,266720826.0,1758916897.8465881,266721066.0,1758916897.8367522,266721056.0,0.0,0.0
6,1758916899.9770842,266723194.0,16,0.0,270,286.4856719970703,0.0054776668548583984,1,-120.79998779296875,100.89999389648438,-96.9000244140625,-78.10000610351562,-200.15066666666664,160.12053333333333,1758916900.2982316,266723738.0,1758916901.01968,266724239.0,1758916901.3161545,266724536.0,1758916901.3061657,266724526.0,0.0,0.0
7,1758916903.4636757,266726683.0,16,0.0,90,211.80224418640137,0.005465269088745117,1,-194.0999755859375,152.5,-149.4000244140625,-131.10000610351562,-200.15066666666664,160.12053333333333,1758916904.9630988,266728397.0,1758916905.8052278,266729025.0,1758916906.0308523,266729250.0,1758916906.01703,266729237.0,0.0,0.0
8,1758916908.2661169,266731485.0,16,0.1,90,294.9049472808838,0.005437374114990234,1,-145.9000244140625,165.0,-135.29998779296875,-113.70001220703125,-200.15066666666664,160.12053333333333,1758916908.4622514,266731888.0,1758916909.1312046,266732351.0,1758916909.4364111,266732656.0,1758916909.4261096,266732646.0,0.0,0.0
9,1758916911.5598774,266734779.0,16,0.35,90,216.9325351715088,0.005329132080078125,1,-166.5999755859375,170.89999389648438,-54.0,-71.20001220703125,-200.15066666666664,160.12053333333333,1758916911.7576404,266735193.0,1758916912.6402693,266735860.0,1758916912.8700724,266736089.0,1758916912.8572018,266736076.0,0.0,0.0
10,1758916915.146164,266738366.0,16,0.1,90,230.33380508422852,0.00425267219543457,1,-182.5,159.0,-162.29998779296875,-139.5,-200.15066666666664,160.12053333333333,1758916915.3866851,266738819.0,1758916916.2260716,266739446.0,1758916916.4663575,266739686.0,1758916916.4564054,266739676.0,0.0,0.0
11,1758916918.6630523,266741882.0,16,0.0,90,214.04123306274414,0.00542902946472168,1,-181.79998779296875,159.20001220703125,-90.20001220703125,-91.39999389648438,-200.15066666666664,160.12053333333333,1758916918.6680086,266742096.0,1758916919.2820358,266742502.0,1758916919.5059965,266742725.0,1758916919.496077,266742715.0,0.0,0.0
12,1758916921.8523881,266745072.0,16,0.6,90,191.08200073242188,0.0054781436920166016,1,-157.20001220703125,194.0,-105.4000244140625,-124.60000610351562,-200.15066666666664,160.12053333333333,1758916922.0537028,266745488.0,1758916923.0045905,266746224.0,1758916923.2059135,266746425.0,1758916923.1956725,266746415.0,0.0,0.0
13,1758916925.4500377,266748669.0,16,0.35,270,390.5322551727295,0.0032117366790771484,1,-163.0,143.29998779296875,-105.79998779296875,-96.60000610351562,-200.15066666666664,160.12053333333333,1758916925.5891201,266749030.0,1758916926.08535,266749305.0,1758916926.4859045,266749705.0,1758916926.4758823,266749695.0,0.0,0.0
14,1758916928.9661715,266752186.0,16,0.35,270,253.81970405578613,0.005083322525024414,1,-199.5,127.0,-124.5999755859375,-80.70001220703125,-200.15066666666664,160.12053333333333,1758916929.5127342,266752951.0,1758916930.0915928,266753311.0,1758916930.3555799,266753575.0,1758916930.3454125,266753565.0,0.0,0.0
15,1758916932.9051037,266756125.0,16,0.35,90,209.78569984436035,0.00443577766418457,1,-180.0999755859375,155.89999389648438,-110.0,-108.0,-200.15066666666664,160.12053333333333,1758916933.1714613,266756605.0,1758916933.9553752,266757175.0,1758916934.175081,266757395.0,1758916934.165161,266757385.0,0.0,0.0
16,1758916936.5371704,266759757.0,16,0.35,270,228.1167507171631,0.0050547122955322266,1,-180.5,161.70001220703125,-147.9000244140625,-126.39999389648438,-200.15066666666664,160.12053333333333,1758916936.831136,266760261.0,1758916937.5373979,266760757.0,1758916937.775073,266760995.0,1758916937.7655146,266760985.0,0.0,0.0
17,1758916940.3451924,266763565.0,16,0.35,270,215.02041816711426,0.005643129348754883,1,-193.0999755859375,167.89999389648438,-167.5,-122.89999389648438,-200.15066666666664,160.12053333333333,1758916940.546669,266763982.0,1758916941.4701128,266764690.0,1758916941.695326,266764915.0,1758916941.6851332,266764905.0,0.0,0.0
18,1758916944.0712774,266767291.0,16,0.6,270,255.9518814086914,0.004393100738525391,1,-210.5,146.89999389648438,-162.0999755859375,-98.79998779296875,-200.15066666666664,160.12053333333333,1758916944.4291346,266767850.0,1758916944.9290905,266768149.0,1758916945.194864,266768415.0,1758916945.1850424,266768405.0,0.0,0.0
19,1758916948.185064,266771405.0,16,0.6,90,243.75343322753906,0.005353689193725586,1,-168.0,174.70001220703125,-161.70001220703125,-153.70001220703125,-200.15066666666664,160.12053333333333,1758916948.3911476,266771822.0,1758916949.1413994,266772361.0,1758916949.3951204,266772615.0,1758916949.3851528,266772605.0,0.0,0.0
20,1758916952.1375573,266775357.0,16,0.35,90,256.14213943481445,0.005084514617919922,1,-163.29998779296875,171.10000610351562,-102.9000244140625,-88.70001220703125,-200.15066666666664,160.12053333333333,1758916952.4184425,266775847.0,1758916953.0284598,266776248.0,1758916953.2946002,266776514.0,1758916953.284602,266776504.0,0.0,0.0
21,1758916955.810289,266779030.0,16,0.6,270,208.68730545043945,0.003952503204345703,1,-199.5999755859375,124.29998779296875,-68.79998779296875,-54.70001220703125,-200.15066666666664,160.12053333333333,1758916956.0255184,266779462.0,1758916956.6560252,266779876.0,1758916956.8746848,266780094.0,1758916956.8647125,266780085.0,0.0,0.0
22,1758916959.5337389,266782753.0,16,0.0,90,214.34783935546875,0.005647897720336914,1,-198.5,177.0,-156.5999755859375,-118.60000610351562,-200.15066666666664,160.12053333333333,1758916959.9408681,266783381.0,1758916960.7402925,266783960.0,1758916960.9642725,266784184.0,1758916960.9546404,266784174.0,0.0,0.0
23,1758916963.5408235,266786761.0,16,0.0,90,247.88975715637207,0.004948139190673828,1,-170.70001220703125,166.39999389648438,-136.0999755859375,-117.89999389648438,-200.15066666666664,160.12053333333333,1758916963.542832,266786974.0,1758916964.2365725,266787456.0,1758916964.4941728,266787714.0,1758916964.4844623,266787704.0,0.0,0.0
24,1758916967.1136405,266790333.0,16,0.0,90,253.5412311553955,0.0049250125885009766,1,-181.0999755859375,189.10000610351562,-139.4000244140625,-120.5,-200.15066666666664,160.12053333333333,1758916967.3310163,266790765.0,1758916968.1511166,266791371.0,1758916968.4141114,266791634.0,1758916968.4046578,266791624.0,0.0,0.0
25,1758916971.0648534,266794284.0,16,0.2,270,279.97708320617676,0.0051844120025634766,1,-234.4000244140625,172.89999389648438,-159.0,-122.39999389648438,-200.15066666666664,160.12053333333333,1758916971.4825673,266794916.0,1758916972.0040996,266795223.0,1758916972.2938817,266795514.0,1758916972.2840767,266795504.0,0.0,0.0
26,1758916974.86684,266798086.0,16,0.0,90,229.28738594055176,0.005506277084350586,1,-215.29998779296875,195.39999389648438,-196.70001220703125,-152.79998779296875,-200.15066666666664,160.12053333333333,1758916975.0068638,266798439.0,1758916975.6449735,266798865.0,1758916975.8838665,266799104.0,1758916975.874261,266799094.0,0.0,0.0
27,1758916978.5207517,266801739.0,16,0.2,90,262.93087005615234,0.005044698715209961,1,-161.79998779296875,150.20001220703125,-46.0999755859375,-67.70001220703125,-200.15066666666664,160.12053333333333,1758916978.716451,266802151.0,1758916979.5910215,266802811.0,1758916979.8638875,266803084.0,1758916979.8539524,266803074.0,0.0,0.0
28,1758916982.2178788,266805437.0,16,0.2,90,235.7032299041748,0.005521297454833984,1,-156.4000244140625,130.10000610351562,-113.5999755859375,-89.39999389648438,-200.15066666666664,160.12053333333333,1758916982.2196944,266805655.0,1758916982.8086014,266806028.0,1758916983.0543265,266806274.0,1758916983.0443046,266806263.0,0.0,0.0
29,1758916985.5170422,266808737.0,16,0.2,90,278.9144515991211,0.0050280094146728516,1,-186.5999755859375,171.5,-133.9000244140625,-125.5,-200.15066666666664,160.12053333333333,1758916985.6410983,266809063.0,1758916986.1548247,266809374.0,1758916986.443468,266809663.0,1758916986.4337392,266809654.0,0.0,0.0
30,1758916988.900763,266812120.0,16,0.2,90,172.43480682373047,0.00484013557434082,1,-178.5999755859375,206.20001220703125,-120.9000244140625,-133.89999389648438,-200.15066666666664,160.12053333333333,1758916988.9022539,266812324.0,1758916989.8113697,266813031.0,1758916989.9937637,266813213.0,1758916989.9838045,266813203.0,0.0,0.0
31,1758916992.3584342,266815578.0,16,0.6,90,269.744873046875,0.0044138431549072266,1,-170.70001220703125,130.60000610351562,-96.0,-55.600006103515625,-200.15066666666664,160.12053333333333,1758916992.5525582,266815988.0,1758916993.083457,266816303.0,1758916993.363195,266816583.0,1758916993.3532019,266816573.0,0.0,0.0
32,1758916995.8288193,266819049.0,16,0.0,90,237.03384399414062,0.00507807731628418,1,-202.79998779296875,179.60000610351562,-169.79998779296875,-145.0,-200.15066666666664,160.12053333333333,1758916996.0913568,266819521.0,1758916996.7762008,266819996.0,1758916997.0232873,266820243.0,1758916997.0132346,266820233.0,0.0,0.0
33,1758916999.3049755,266822524.0,16,0.0,90,218.61028671264648,0.005401611328125,1,-206.29998779296875,199.29998779296875,-188.4000244140625,-170.20001220703125,-200.15066666666664,160.12053333333333,1758916999.5787456,266823008.0,1758917000.2844226,266823504.0,1758917000.5130804,266823733.0,1758917000.503033,266823723.0,0.0,0.0
34,1758917002.9698284,266826189.0,16,0.1,90,222.4738597869873,0.0050618648529052734,1,-175.4000244140625,187.60000610351562,-125.79998779296875,-138.20001220703125,-200.15066666666664,160.12053333333333,1758917003.2361815,266826669.0,1758917004.0010676,266827221.0,1758917004.2330744,266827453.0,1758917004.2235415,266827443.0,0.0,0.0
35,1758917006.5367715,266829756.0,16,0.6,270,241.5027618408203,0.005058765411376953,1,-217.29998779296875,148.39999389648438,-161.9000244140625,-104.89999389648438,-200.15066666666664,160.12053333333333,1758917006.7199817,266830155.0,1758917007.361293,266830581.0,1758917007.6128685,266830833.0,1758917007.6027958,266830823.0,0.0,0.0
36,1758917010.0165386,266833236.0,16,0.6,90,-1.0,-1.0,0,-1.0,-1.0,-1.0,-1.0,-200.15066666666664,160.12053333333333,1758917010.744768,266834166.0,1758917011.4509304,266834670.0,-1.0,-1.0,-1.0,-1.0,0.0,0.0
37,1758917013.7843273,266837001.0,16,0.1,90,206.26497268676758,0.003924369812011719,1,-218.9000244140625,131.70001220703125,-196.5999755859375,-99.79998779296875,-200.15066666666664,160.12053333333333,1758917014.0218847,266837454.0,1758917014.946596,266838166.0,1758917015.1631336,266838383.0,1758917015.1528609,266838373.0,0.0,0.0
38,1758917017.531898,266840751.0,16,0.1,270,223.33121299743652,0.0033304691314697266,1,-204.29998779296875,179.39999389648438,-124.29998779296875,-98.79998779296875,-200.15066666666664,160.12053333333333,1758917017.729123,266841167.0,1758917018.3901427,266841610.0,1758917018.6230087,266841842.0,1758917018.613474,266841833.0,0.0,0.0
39,1758917021.0502696,266844270.0,16,0.6,270,-1.0,-1.0,0,-1.0,-1.0,-1.0,-1.0,-200.15066666666664,160.12053333333333,1758917021.9974337,266845433.0,-1.0,-1.0,-1.0,-1.0,-1.0,-1.0,0.0,0.0
40,1758917024.3586724,266847578.0,16,0.6,90,215.49272537231445,0.005124807357788086,1,-146.70001220703125,169.60000610351562,-76.9000244140625,-102.10000610351562,-200.15066666666664,160.12053333333333,1758917024.8623145,266848298.0,1758917025.6367013,266848856.0,1758917025.8624976,266849082.0,1758917025.852194,266849072.0,0.0,0.0
41,1758917028.3970864,266851617.0,16,0.35,270,270.1437473297119,0.005553722381591797,1,-214.29998779296875,138.60000610351562,-120.70001220703125,-82.5,-200.15066666666664,160.12053333333333,1758917028.9060352,266852343.0,1758917029.6318996,266852852.0,1758917029.9120317,266853132.0,1758917029.9020433,266853122.0,0.0,0.0
42,1758917032.477307,266855696.0,16,0.35,90,248.75855445861816,0.013978958129882812,1,-175.5999755859375,198.79998779296875,-57.5999755859375,-68.79998779296875,-200.15066666666664,160.12053333333333,1758917032.6069202,266856043.0,1758917033.5636346,266856783.0,1758917033.8329613,266857052.0,1758917033.8123932,266857032.0,0.0,0.0
43,1758917036.3167279,266859537.0,16,0.1,270,193.71390342712402,0.0019524097442626953,1,-168.29998779296875,132.0,-60.20001220703125,-64.20001220703125,-200.15066666666664,160.12053333333333,1758917036.471169,266859909.0,1758917037.3991988,266860619.0,1758917037.6018395,266860821.0,1758917037.5929127,266860812.0,0.0,0.0
44,1758917040.0092506,266863229.0,16,0.6,90,299.4256019592285,0.004482269287109375,1,-166.79998779296875,162.79998779296875,-60.0,-72.5,-200.15066666666664,160.12053333333333,1758917040.2464585,266863679.0,1758917040.7327936,266863952.0,1758917041.04229,266864262.0,1758917041.0322192,266864252.0,0.0,0.0
45,1758917043.336749,266866556.0,16,0.0,270,238.6324405670166,0.005454540252685547,1,-191.0,163.29998779296875,-67.5,-52.70001220703125,-200.15066666666664,160.12053333333333,1758917043.3387048,266866771.0,1758917043.8629878,266867083.0,1758917044.1115656,266867331.0,1758917044.1016202,266867322.0,0.0,0.0
46,1758917046.8194957,266870039.0,16,0.35,270,296.11992835998535,0.0038335323333740234,1,-183.4000244140625,166.0,-90.79998779296875,-88.29998779296875,-200.15066666666664,160.12053333333333,1758917047.0322633,266870462.0,1758917047.7566319,266870976.0,1758917048.0637078,266871284.0,1758917048.0527518,266871272.0,0.0,0.0
47,1758917050.6178396,266873837.0,16,0.6,90,295.9146499633789,0.005707740783691406,1,-154.79998779296875,169.60000610351562,-95.79998779296875,-93.39999389648438,-200.15066666666664,160.12053333333333,1758917050.9384918,266874367.0,1758917051.415465,266874635.0,1758917051.7215374,266874941.0,1758917051.7113798,266874931.0,0.0,0.0
48,1758917054.2973573,266877517.0,16,0.35,270,258.1779956817627,0.005456686019897461,1,-221.5,155.60000610351562,-126.4000244140625,-82.0,-200.15066666666664,160.12053333333333,1758917054.4680645,266877893.0,1758917055.0129385,266878233.0,1758917055.281146,266878501.0,1758917055.2711165,266878491.0,0.0,0.0
49,1758917057.9137082,266881133.0,16,0.2,90,251.53589248657227,0.004374504089355469,1,-208.5999755859375,181.20001220703125,-188.5,-111.60000610351562,-200.15066666666664,160.12053333333333,1758917058.0847545,266881515.0,1758917058.7400727,266881960.0,1758917059.0010924,266882221.0,1758917058.9916086,266882211.0,0.0,0.0
50,1758917061.5137048,266884733.0,16,0.6,90,256.4072608947754,0.004960536956787109,1,-174.5999755859375,174.10000610351562,-131.5,-92.70001220703125,-200.15066666666664,160.12053333333333,1758917061.5366132,266884969.0,1758917062.0150313,266885235.0,1758917062.2814364,266885501.0,1758917062.2714386,266885491.0,0.0,0.0
51,1758917064.8927057,266888112.0,16,0.0,270,-1.0,-1.0,0,-1.0,-1.0,-1.0,-1.0,-200.15066666666664,160.12053333333333,1758917065.106557,266888536.0,-1.0,-1.0,-1.0,-1.0,-1.0,-1.0,0.0,0.0
52,1758917067.5453072,266890765.0,16,0.1,90,210.5114459991455,0.005086660385131836,1,-165.79998779296875,155.39999389648438,-40.20001220703125,-72.39999389648438,-200.15066666666664,160.12053333333333,1758917067.864578,266891294.0,1758917068.7604942,266891980.0,1758917068.9810102,266892201.0,1758917068.9710057,266892191.0,0.0,0.0
53,1758917071.59563,266894815.0,16,0.35,90,244.86517906188965,0.005201816558837891,1,-155.5,209.60000610351562,-115.70001220703125,-164.5,-200.15066666666664,160.12053333333333,1758917071.8099039,266895240.0,1758917072.505823,266895725.0,1758917072.7610803,266895981.0,1758917072.750688,266895970.0,0.0,0.0
54,1758917075.2566419,266898476.0,16,0.35,90,292.1609878540039,0.00491786003112793,1,-167.0999755859375,161.60000610351562,-104.5999755859375,-97.0,-200.15066666666664,160.12053333333333,1758917075.4280832,266898859.0,1758917076.1285012,266899348.0,1758917076.4306295,266899651.0,1758917076.4206622,266899641.0,0.0,0.0
55,1758917079.0329313,266902252.0,16,0.1,90,290.0841236114502,0.00568699836730957,1,-186.9000244140625,160.0,-129.70001220703125,-100.10000610351562,-200.15066666666664,160.12053333333333,1758917079.2264132,266902655.0,1758917079.730537,266902950.0,1758917080.0304039,266903249.0,1758917080.020621,266903239.0,0.0,0.0
56,1758917082.633629,266905853.0,16,0.2,90,232.93519020080566,0.004463911056518555,1,-185.4000244140625,168.60000610351562,-61.70001220703125,-63.29998779296875,-200.15066666666664,160.12053333333333,1758917082.8695705,266906300.0,1758917083.6973526,266906917.0,1758917083.940208,266907158.0,1758917083.9302878,266907150.0,0.0,0.0
57,1758917086.4884763,266909704.0,16,0.6,90,225.3580093383789,0.003968000411987305,1,-138.5,188.20001220703125,-48.0999755859375,-73.60000610351562,-200.15066666666664,160.12053333333333,1758917086.6608424,266910092.0,1758917087.6049628,266910825.0,1758917087.840241,266911060.0,1758917087.8303208,266911050.0,0.0,0.0
58,1758917090.4723876,266913692.0,16,0.6,90,221.57573699951172,0.005527019500732422,1,-171.70001220703125,192.10000610351562,-183.5,-146.70001220703125,-200.15066666666664,160.12053333333333,1758917090.6707218,266914101.0,1758917091.1988313,266914417.0,1758917091.430439,266914648.0,1758917091.420407,266914637.0,0.0,0.0
59,1758917093.934471,266917154.0,16,0.6,270,226.67193412780762,0.0059261322021484375,1,-152.5,138.10000610351562,-53.29998779296875,-67.0,-200.15066666666664,160.12053333333333,1758917094.0635862,266917494.0,1758917094.67353,266917891.0,1758917094.9101222,266918130.0,1758917094.900202,266918119.0,0.0,0.0
60,1758917097.5453029,266920760.0,16,0.0,270,177.21033096313477,0.005488395690917969,1,-188.79998779296875,189.20001220703125,-80.70001220703125,-78.20001220703125,-200.15066666666664,160.12053333333333,1758917097.8860848,266921315.0,1758917098.692739,266921910.0,1758917098.8800364,266922100.0,1758917098.8699493,266922090.0,0.0,0.0
61,1758917101.3565123,266924576.0,16,0.2,90,202.41284370422363,0.00542759895324707,1,-177.70001220703125,186.39999389648438,-151.70001220703125,-154.70001220703125,-200.15066666666664,160.12053333333333,1758917101.9676547,266925399.0,1758917102.8876019,266926107.0,1758917103.0999346,266926320.0,1758917103.0900147,266926310.0,0.0,0.0
62,1758917105.667758,266928887.0,16,0.35,90,88.66715431213379,-1.0,0,-1.0,-1.0,-7.29998779296875,500.0999755859375,-200.15066666666664,160.12053333333333,1758917106.0496356,266929478.0,1758917106.9913974,266930211.0,-1.0,-1.0,1758917107.0800645,266930300.0,0.0,0.0
63,1758917109.1709683,266932389.0,16,0.6,270,227.30302810668945,0.004391908645629883,1,-201.5999755859375,151.29998779296875,-72.20001220703125,-82.60000610351562,-200.15066666666664,160.12053333333333,1758917109.4268694,266932856.0,1758917109.9425356,266933162.0,1758917110.1793115,266933399.0,1758917110.1698387,266933389.0,0.0,0.0
64,1758917112.7319953,266935948.0,16,0.2,270,221.26436233520508,0.005005836486816406,1,-163.5999755859375,163.0,-73.29998779296875,-93.89999389648438,-200.15066666666664,160.12053333333333,1758917112.98904,266936418.0,1758917113.948291,266937168.0,1758917114.1791844,266937399.0,1758917114.1695554,266937389.0,0.0,0.0
65,1758917116.7764735,266939996.0,16,0.6,90,279.15239334106445,0.0045299530029296875,1,-193.20001220703125,174.0,-96.9000244140625,-88.10000610351562,-200.15066666666664,160.12053333333333,1758917117.1685302,266940599.0,1758917117.6604486,266940880.0,1758917117.9491327,266941169.0,1758917117.939601,266941159.0,0.0,0.0
66,1758917120.498364,266943718.0,16,0.1,270,242.97642707824707,0.004581928253173828,1,-193.9000244140625,161.39999389648438,-75.9000244140625,-38.899993896484375,-200.15066666666664,160.12053333333333,1758917120.6926007,266944127.0,1758917121.366534,266944586.0,1758917121.619641,266944839.0,1758917121.6095104,266944829.0,0.0,0.0
67,1758917124.2486906,266947468.0,16,0.2,270,271.91758155822754,0.005520343780517578,1,-121.5,130.29998779296875,-17.20001220703125,-85.0,-200.15066666666664,160.12053333333333,1758917124.2515273,266947692.0,1758917124.8169706,266948037.0,1758917125.0988986,266948319.0,1758917125.0888882,266948309.0,0.0,0.0
68,1758917127.6894553,266950909.0,16,0.1,90,211.04788780212402,0.005232572555541992,1,-193.20001220703125,154.79998779296875,-75.20001220703125,-63.5,-200.15066666666664,160.12053333333333,1758917127.955909,266951389.0,1758917128.7883189,266952008.0,1758917129.0089738,266952229.0,1758917128.9993668,266952219.0,0.0,0.0
69,1758917131.6583538,266954878.0,16,0.2,90,302.10351943969727,0.00448298454284668,1,-202.70001220703125,206.29998779296875,-162.20001220703125,-170.39999389648438,-200.15066666666664,160.12053333333333,1758917131.9410636,266955371.0,1758917132.4470215,266955667.0,1758917132.7593305,266955979.0,1758917132.749125,266955969.0,0.0,0.0
70,1758917135.36883,266958588.0,16,0.6,270,230.3004264831543,0.00447845458984375,1,-229.5999755859375,203.60000610351562,-177.79998779296875,-135.29998779296875,-200.15066666666664,160.12053333333333,1758917135.7636626,266959198.0,1758917136.488838,266959709.0,1758917136.7290113,266959949.0,1758917136.7191384,266959939.0,0.0,0.0
71,1758917139.2853258,266962505.0,16,0.2,90,249.6957778930664,0.005590677261352539,1,-173.79998779296875,194.10000610351562,-66.20001220703125,-112.5,-200.15066666666664,160.12053333333333,1758917139.5375755,266962973.0,1758917140.328957,266963549.0,1758917140.5889597,266963809.0,1758917140.5786529,266963799.0,0.0,0.0
72,1758917143.250639,266966470.0,16,0.6,270,293.8210964202881,0.005869388580322266,1,-196.29998779296875,201.20001220703125,-163.79998779296875,-143.5,-200.15066666666664,160.12053333333333,1758917143.3945837,266966827.0,1758917143.974965,266967195.0,1758917144.2787712,266967498.0,1758917144.2687862,266967488.0,0.0,0.0
73,1758917146.8577344,266970078.0,16,0.0,270,255.8596134185791,0.005737781524658203,1,-199.70001220703125,171.5,-114.79998779296875,-85.70001220703125,-200.15066666666664,160.12053333333333,1758917147.201382,266970637.0,1758917147.7724292,266970992.0,1758917148.03859,266971258.0,1758917148.0282888,266971248.0,0.0,0.0
74,1758917150.701017,266973921.0,16,0.1,90,225.0070571899414,0.0051975250244140625,1,-212.5,164.79998779296875,-181.5,-132.39999389648438,-200.15066666666664,160.12053333333333,1758917150.833254,266974265.0,1758917151.7135744,266974933.0,1758917151.9484835,266975168.0,1758917151.9385815,266975158.0,0.0,0.0
75,1758917154.5208702,266977741.0,16,0.0,90,212.00275421142578,0.003915071487426758,1,-176.4000244140625,163.60000610351562,-58.20001220703125,-82.79998779296875,-200.15066666666664,160.12053333333333,1758917155.02454,266978463.0,1758917155.9267402,266979146.0,1758917156.148014,266979368.0,1758917156.138743,266979358.0,0.0,0.0
76,1758917158.8229144,266982043.0,16,0.35,270,238.2814884185791,0.004435300827026367,1,-182.79998779296875,159.79998779296875,-101.4000244140625,-87.89999389648438,-200.15066666666664,160.12053333333333,1758917158.9457145,266982385.0,1758917159.759992,266982980.0,1758917160.0081646,266983228.0,1758917159.9982734,266983218.0,0.0,0.0
77,1758917162.6125066,266985832.0,16,0.6,270,296.0503101348877,0.0050089359283447266,1,-229.0,166.10000610351562,-138.0999755859375,-98.39999389648438,-200.15066666666664,160.12053333333333,1758917162.8740454,266986295.0,1758917163.382218,266986602.0,1758917163.68784,266986908.0,1758917163.6782682,266986898.0,0.0,0.0
78,1758917166.2500744,266989470.0,16,0.35,90,236.75084114074707,0.005707502365112305,1,-210.20001220703125,165.29998779296875,-137.9000244140625,-96.79998779296875,-200.15066666666664,160.12053333333333,1758917166.6671016,266990099.0,1758917167.5009413,266990721.0,1758917167.7480261,266990968.0,1758917167.737692,266990958.0,0.0,0.0
79,1758917170.4231222,266993643.0,16,0.0,90,255.57708740234375,0.004937410354614258,1,-191.70001220703125,186.79998779296875,-170.9000244140625,-126.5,-200.15066666666664,160.12053333333333,1758917170.6417253,266994082.0,1758917171.3420875,266994562.0,1758917171.607691,266994828.0,1758917171.5976646,266994818.0,0.0,0.0
80,1758917174.1849205,266997405.0,16,0.35,270,242.84124374389648,0.002977132797241211,1,-216.70001220703125,146.89999389648438,-80.79998779296875,-70.0,-200.15066666666664,160.12053333333333,1758917174.1904225,266997618.0,1758917175.0259023,266998246.0,1758917175.2788162,266998499.0,1758917175.2687435,266998488.0,0.0,0.0
81,1758917177.9138649,267001134.0,16,0.0,270,319.7002410888672,0.0034983158111572266,1,-199.0,157.89999389648438,-107.70001220703125,-82.29998779296875,-200.15066666666664,160.12053333333333,1758917178.2023757,267001637.0,1758917178.7879636,267002008.0,1758917179.1175761,267002337.0,1758917179.1076639,267002328.0,0.0,0.0
82,1758917181.753736,267004973.0,16,0.0,270,167.33574867248535,-1.0,0,-1.0,-1.0,29.20001220703125,160.29998779296875,-200.15066666666664,160.12053333333333,1758917181.759198,267005187.0,1758917182.4698153,267005690.0,-1.0,-1.0,1758917182.637151,267005857.0,0.0,0.0
83,1758917184.7140434,267007934.0,16,0.2,270,229.111909866333,0.0058629512786865234,1,-169.70001220703125,165.39999389648438,-97.70001220703125,-100.39999389648438,-200.15066666666664,160.12053333333333,1758917184.907706,267008342.0,1758917185.81829,267009038.0,1758917186.0575397,267009277.0,1758917186.047402,267009267.0,0.0,0.0
84,1758917188.751978,267011972.0,16,0.1,270,237.24699020385742,0.005951881408691406,1,-218.9000244140625,191.60000610351562,-182.0,-152.5,-200.15066666666664,160.12053333333333,1758917189.1020908,267012533.0,1758917189.769744,267012990.0,1758917190.016938,267013237.0,1758917190.006991,267013227.0,0.0,0.0
85,1758917192.6012037,267015821.0,16,0.1,270,223.45948219299316,0.003821849822998047,1,-158.9000244140625,200.89999389648438,-104.5999755859375,-138.29998779296875,-200.15066666666664,160.12053333333333,1758917192.7018034,267016123.0,1758917193.5542254,267016774.0,1758917193.7905548,267017010.0,1758917193.777685,267016998.0,0.0,0.0
86,1758917196.4547753,267019675.0,16,0.6,270,290.7404899597168,0.00461578369140625,1,-203.29998779296875,161.29998779296875,-131.0,-126.20001220703125,-200.15066666666664,160.12053333333333,1758917196.6559312,267020094.0,1758917197.2061827,267020426.0,1758917197.5071232,267020727.0,1758917197.4969232,267020717.0,0.0,0.0
87,1758917200.1047382,267023325.0,16,0.0,90,242.1703338623047,0.005890846252441406,1,-182.20001220703125,174.60000610351562,-134.5,-131.89999389648438,-200.15066666666664,160.12053333333333,1758917200.4962468,267023931.0,1758917201.074549,267024294.0,1758917201.326525,267024547.0,1758917201.3167193,267024536.0,0.0,0.0
88,1758917204.0844223,267027304.0,16,0.35,90,289.0489101409912,0.0053441524505615234,1,-146.5,181.39999389648438,-105.9000244140625,-136.5,-200.15066666666664,160.12053333333333,1758917204.3735597,267027810.0,1758917205.3576825,267028577.0,1758917205.6563902,267028876.0,1758917205.6467314,267028866.0,0.0,0.0
89,1758917208.2770963,267031497.0,16,0.6,270,287.6393795013428,0.004387617111206055,1,-232.70001220703125,223.10000610351562,-140.79998779296875,-135.70001220703125,-200.15066666666664,160.12053333333333,1758917208.5188513,267031956.0,1758917209.3292866,267032549.0,1758917209.626801,267032847.0,1758917209.616926,267032837.0,0.0,0.0
90,1758917212.1413639,267035361.0,16,0.1,270,332.5023651123047,0.00495457649230957,1,-207.29998779296875,187.89999389648438,-138.79998779296875,-142.70001220703125,-200.15066666666664,160.12053333333333,1758917212.1448355,267035579.0,1758917212.6240137,267035844.0,1758917212.966183,267036186.0,1758917212.956516,267036176.0,0.0,0.0
91,1758917215.6076276,267038828.0,16,0.0,90,222.96500205993652,0.005313396453857422,1,-232.4000244140625,166.10000610351562,-78.20001220703125,-84.29998779296875,-200.15066666666664,160.12053333333333,1758917215.614079,267039045.0,1758917216.3839242,267039604.0,1758917216.6190681,267039839.0,1758917216.6068892,267039827.0,0.0,0.0
92,1758917219.1913154,267042411.0,16,0.0,90,205.9957981109619,-1.0,0,-1.0,-1.0,-72.0,624.5999755859375,-200.15066666666664,160.12053333333333,1758917219.4615211,267042839.0,1758917220.1603348,267043380.0,-1.0,-1.0,1758917220.3663306,267043586.0,0.0,0.0
93,1758917222.5325437,267045752.0,16,0.2,90,221.64392471313477,0.0045928955078125,1,-154.5,110.39999389648438,-77.4000244140625,-61.79998779296875,-200.15066666666664,160.12053333333333,1758917222.7983956,267046230.0,1758917223.4441183,267046664.0,1758917223.6757958,267046896.0,1758917223.6657622,267046886.0,0.0,0.0
94,1758917226.2458858,267049466.0,16,0.1,270,234.30943489074707,0.005522489547729492,1,-220.4000244140625,188.79998779296875,-154.5,-117.5,-200.15066666666664,160.12053333333333,1758917226.707099,267050145.0,1758917227.5812843,267050801.0,1758917227.8256745,267051046.0,1758917227.8155937,267051036.0,0.0,0.0
95,1758917230.504111,267053724.0,16,0.6,270,229.8285961151123,0.00573277473449707,1,-188.0999755859375,175.29998779296875,-95.4000244140625,-87.79998779296875,-200.15066666666664,160.12053333333333,1758917230.5105805,267053940.0,1758917231.1957273,267054416.0,1758917231.4360547,267054656.0,1758917231.425556,267054646.0,0.0,0.0
96,1758917234.1540697,267057374.0,16,0.6,270,195.92022895812988,0.004960536956787109,1,-192.70001220703125,182.60000610351562,-126.79998779296875,-98.60000610351562,-200.15066666666664,160.12053333333333,1758917234.5559835,267057985.0,1758917235.2795184,267058499.0,1758917235.4858537,267058705.0,1758917235.4754386,267058695.0,0.0,0.0
97,1758917238.0536354,267061274.0,16,0.0,90,298.34651947021484,0.005048990249633789,1,-187.5,177.0,-131.79998779296875,-96.89999389648438,-200.15066666666664,160.12053333333333,1758917238.3059685,267061728.0,1758917238.8769476,267062097.0,1758917239.18552,267062405.0,1758917239.1752942,267062395.0,0.0,0.0
98,1758917241.8380642,267065057.0,16,0.6,90,220.41845321655273,0.005022525787353516,1,-161.5999755859375,190.29998779296875,-66.20001220703125,-100.10000610351562,-200.15066666666664,160.12053333333333,1758917241.8435223,267065270.0,1758917242.575246,267065795.0,1758917242.8052237,267066025.0,1758917242.7956645,267066015.0,0.0,0.0
99,1758917245.352746,267068573.0,16,0.1,270,-1.0,-1.0,0,-1.0,-1.0,-1.0,-1.0,-200.15066666666664,160.12053333333333,1758917245.7513795,267069185.0,-1.0,-1.0,-1.0,-1.0,-1.0,-1.0,0.0,0.0
100,1758917248.1727166,267071393.0,16,0.0,90,-1.0,-1.0,0,-1.0,-1.0,-1.0,-1.0,-200.15066666666664,160.12053333333333,1758917248.4002116,267071838.0,-1.0,-1.0,-1.0,-1.0,-1.0,-1.0,0.0,0.0
101,1758917251.2615736,267074481.0,16,0.1,270,310.2543354034424,0.004959821701049805,1,-140.29998779296875,85.0,-140.29998779296875,-85.0,-200.15066666666664,160.12053333333333,1758917251.3777761,267074810.0,1758917251.9747245,267075195.0,1758917252.2948987,267075409.0,1758917252.2849789,267075399.0,0.0,0.0
102,1758917254.905162,267078125.0,16,0.2,90,260.317325592041,0.0048410892486572266,1,-176.9000244140625,163.60000610351562,-92.20001220703125,-87.70001220703125,-200.15066666666664,160.12053333333333,1758917255.080192,267078508.0,1758917255.6750486,267078895.0,1758917255.9450092,267079165.0,1758917255.935366,267079155.0,0.0,0.0
103,1758917258.6325526,267081852.0,16,0.0,270,351.4139652252197,0.005419731140136719,1,-212.70001220703125,197.10000610351562,-174.9000244140625,-132.39999389648438,-200.15066666666664,160.12053333333333,1758917258.798907,267082234.0,1758917259.6331973,267082853.0,1758917259.9945066,267083215.0,1758917259.9846113,267083205.0,0.0,0.0
104,1758917262.5856254,267085805.0,16,0.2,90,-1.0,-1.0,0,-1.0,-1.0,-1.0,-1.0,-200.15066666666664,160.12053333333333,1758917262.9315777,267086365.0,-1.0,-1.0,-1.0,-1.0,-1.0,-1.0,0.0,0.0
105,1758917265.5763125,267088796.0,16,0.1,270,215.64126014709473,0.005683422088623047,1,-176.0999755859375,155.39999389648438,-103.0,-95.20001220703125,-200.15066666666664,160.12053333333333,1758917266.0157416,267089450.0,1758917266.7887344,267090009.0,1758917267.0143824,267090235.0,1758917267.0043757,267090225.0,0.0,0.0
106,1758917269.6673512,267092887.0,16,0.1,90,302.3502826690674,0.00493931770324707,1,-158.9000244140625,141.60000610351562,-50.20001220703125,-74.89999389648438,-200.15066666666664,160.12053333333333,1758917269.8644843,267093297.0,1758917270.7323892,267093952.0,1758917271.044747,267094264.0,1758917271.0347395,267094255.0,0.0,0.0
107,1758917273.7043657,267096924.0,16,0.1,90,224.25460815429688,0.004992246627807617,1,-179.70001220703125,173.60000610351562,-135.20001220703125,-131.39999389648438,-200.15066666666664,160.12053333333333,1758917273.9480197,267097372.0,1758917274.860256,267098080.0,1758917275.0942163,267098314.0,1758917275.0845106,267098304.0,0.0,0.0
108,1758917277.6935804,267100913.0,16,0.1,90,-1.0,-1.0,0,-1.0,-1.0,-1.0,-1.0,-200.15066666666664,160.12053333333333,1758917277.9305563,267101368.0,-1.0,-1.0,-1.0,-1.0,-1.0,-1.0,0.0,0.0
109,1758917280.4130228,267103633.0,16,0.1,90,231.7371368408203,0.004614591598510742,1,-185.29998779296875,200.10000610351562,-164.0999755859375,-174.5,-200.15066666666664,160.12053333333333,1758917280.8373764,267104259.0,1758917281.6426127,267104863.0,1758917281.8843844,267105104.0,1758917281.8743498,267105094.0,0.0,0.0
110,1758917284.525302,267107745.0,16,0.6,270,225.47626495361328,0.00487828254699707,1,-213.9000244140625,150.39999389648438,-132.5,-101.39999389648438,-200.15066666666664,160.12053333333333,1758917284.8800309,267108312.0,1758917285.6787922,267108899.0,1758917285.9136765,267109134.0,1758917285.9042685,267109124.0,0.0,0.0
111,1758917288.252874,267111473.0,16,0.1,270,315.5839443206787,0.005433797836303711,1,-159.0999755859375,215.79998779296875,-69.70001220703125,-149.39999389648438,-200.15066666666664,160.12053333333333,1758917288.3872094,267111827.0,1758917288.9986968,267112219.0,1758917289.3241754,267112544.0,1758917289.3142807,267112534.0,0.0,0.0
112,1758917291.827824,267115048.0,16,0.2,270,375.71215629577637,0.0053865909576416016,1,-155.5999755859375,134.0,-65.79998779296875,-76.39999389648438,-200.15066666666664,160.12053333333333,1758917292.1355147,267115576.0,1758917292.638238,267115858.0,1758917293.0235198,267116244.0,1758917293.01395,267116234.0,0.0,0.0
113,1758917295.660572,267118880.0,16,0.1,270,307.1777820587158,0.005823850631713867,1,-180.29998779296875,152.29998779296875,-163.5999755859375,-123.29998779296875,-200.15066666666664,160.12053333333333,1758917296.1361017,267119572.0,1758917296.6564817,267119877.0,1758917296.9735284,267120193.0,1758917296.9636595,267120183.0,0.0,0.0
114,1758917299.5286448,267122748.0,16,0.35,270,279.9229621887207,0.0049686431884765625,1,-245.20001220703125,168.89999389648438,-76.5999755859375,-56.100006103515625,-200.15066666666664,160.12053333333333,1758917299.7057803,267123126.0,1758917300.3742332,267123594.0,1758917300.6664553,267123886.0,1758917300.6541562,267123874.0,0.0,0.0
115,1758917303.3357224,267126556.0,16,0.0,90,271.47412300109863,0.005079507827758789,1,-199.0999755859375,135.79998779296875,-147.20001220703125,-122.60000610351562,-200.15066666666664,160.12053333333333,1758917303.7298007,267127158.0,1758917304.2222626,267127442.0,1758917304.5034156,267127723.0,1758917304.4937367,267127714.0,0.0,0.0
116,1758917307.1597939,267130378.0,16,0.2,90,235.66317558288574,0.005505561828613281,1,-176.29998779296875,163.0,-104.20001220703125,-74.79998779296875,-200.15066666666664,160.12053333333333,1758917307.8926957,267131330.0,1758917308.4975429,267131718.0,1758917308.742966,267131963.0,1758917308.733206,267131953.0,0.0,0.0
117,1758917311.3657234,267134585.0,16,0.0,90,-1.0,-1.0,0,-1.0,-1.0,-1.0,-1.0,-200.15066666666664,160.12053333333333,1758917311.4984448,267134931.0,-1.0,-1.0,-1.0,-1.0,-1.0,-1.0,0.0,0.0
118,1758917314.3962374,267137616.0,16,0.1,90,250.84757804870605,0.004504203796386719,1,-195.0,173.5,-123.20001220703125,-90.29998779296875,-200.15066666666664,160.12053333333333,1758917314.9191084,267138359.0,1758917315.6420534,267138861.0,1758917315.9026556,267139123.0,1758917315.892901,267139113.0,0.0,0.0
119,1758917318.5377653,267141758.0,16,0.0,90,222.25379943847656,0.005461215972900391,1,-180.5999755859375,163.79998779296875,-50.29998779296875,-74.89999389648438,-200.15066666666664,160.12053333333333,1758917318.6750894,267142115.0,1758917319.6407034,267142861.0,1758917319.873079,267143093.0,1758917319.8629572,267143083.0,0.0,0.0
120,1758917322.5338302,267145753.0,16,0.0,270,292.7665710449219,0.004467487335205078,1,-165.5999755859375,184.39999389648438,-59.5,-66.60000610351562,-200.15066666666664,160.12053333333333,1758917322.653622,267146092.0,1758917323.2202132,267146440.0,1758917323.5228994,267146743.0,1758917323.5129797,267146733.0,0.0,0.0
121,1758917326.0600774,267149279.0,16,0.6,270,215.78264236450195,0.005363941192626953,1,-213.0999755859375,159.39999389648438,-107.4000244140625,-89.20001220703125,-200.15066666666664,160.12053333333333,1758917326.3274512,267149767.0,1758917327.1868136,267150407.0,1758917327.412601,267150633.0,1758917327.4025962,267150623.0,0.0,0.0
122,1758917330.0887191,267153308.0,16,0.0,90,228.7120819091797,0.005660295486450195,1,-204.4000244140625,179.0,-144.70001220703125,-101.0,-200.15066666666664,160.12053333333333,1758917330.3473783,267153778.0,1758917330.9441664,267154164.0,1758917331.1829174,267154403.0,1758917331.1728785,267154393.0,0.0,0.0
123,1758917333.7087834,267156928.0,16,0.6,90,295.1664924621582,0.004961729049682617,1,-131.29998779296875,209.79998779296875,-34.29998779296875,-98.70001220703125,-200.15066666666664,160.12053333333333,1758917333.8415208,267157277.0,1758917334.5570323,267157777.0,1758917334.862201,267158082.0,1758917334.8521988,267158072.0,0.0,0.0
124,1758917337.5132573,267160733.0,16,0.2,90,255.85508346557617,0.004323005676269531,1,-154.70001220703125,149.0,-49.79998779296875,-63.100006103515625,-200.15066666666664,160.12053333333333,1758917337.7777083,267161209.0,1758917338.6867154,267161907.0,1758917338.9526834,267162173.0,1758917338.9425704,267162163.0,0.0,0.0
125,1758917341.638667,267164858.0,16,0.6,270,208.75811576843262,0.0055119991302490234,1,-219.70001220703125,159.5,-103.5999755859375,-82.70001220703125,-200.15066666666664,160.12053333333333,1758917341.8089182,267165239.0,1758917342.683051,267165903.0,1758917342.9018097,267166122.0,1758917342.8918092,267166112.0,0.0,0.0
126,1758917345.5919719,267168812.0,16,0.6,270,279.62279319763184,0.005000591278076172,1,-233.0999755859375,130.79998779296875,-82.5999755859375,-72.60000610351562,-200.15066666666664,160.12053333333333,1758917346.013987,267169442.0,1758917346.9120138,267170132.0,1758917347.201567,267170422.0,1758917347.1916366,267170412.0,0.0,0.0
127,1758917349.9921427,267173212.0,16,0.2,270,218.83654594421387,0.0057260990142822266,1,-171.5999755859375,120.60000610351562,-53.20001220703125,-62.20001220703125,-200.15066666666664,160.12053333333333,1758917350.7496302,267174180.0,1758917351.4229712,267174643.0,1758917351.651525,267174872.0,1758917351.6418078,267174862.0,0.0,0.0
128,1758917354.3214238,267177542.0,16,0.2,90,271.1200714111328,0.005999565124511719,1,-167.79998779296875,175.79998779296875,-79.4000244140625,-91.60000610351562,-200.15066666666664,160.12053333333333,1758917354.4923778,267177923.0,1758917355.1504383,267178371.0,1758917355.4317908,267178652.0,1758917355.4215584,267178642.0,0.0,0.0
129,1758917358.1605039,267181381.0,16,0.0,90,263.2632255554199,0.004959583282470703,1,-190.0,180.0,-112.29998779296875,-96.0,-200.15066666666664,160.12053333333333,1758917358.4158328,267181845.0,1758917359.158286,267182379.0,1758917359.4314675,267182652.0,1758917359.4215493,267182642.0,0.0,0.0
130,1758917362.1625535,267185383.0,16,0.35,90,149.79171752929688,-1.0,0,-1.0,-1.0,-33728.0,-33308.0,-200.15066666666664,160.12053333333333,1758917362.5639472,267185992.0,1758917363.481468,267186702.0,-1.0,-1.0,1758917363.6312597,267186845.0,0.0,0.0
131,1758917365.8035383,267189023.0,16,0.6,90,284.0161323547363,0.00572514533996582,1,-201.4000244140625,173.5,-117.9000244140625,-84.5,-200.15066666666664,160.12053333333333,1758917366.0837748,267189517.0,1758917366.6572962,267189877.0,1758917366.9515245,267190171.0,1758917366.9413123,267190161.0,0.0,0.0
132,1758917369.6506226,267192871.0,16,0.0,90,294.28553581237793,0.0046346187591552734,1,-195.0999755859375,160.20001220703125,-150.79998779296875,-100.70001220703125,-200.15066666666664,160.12053333333333,1758917370.0655699,267193502.0,1758917370.727127,267193947.0,1758917371.0315309,267194251.0,1758917371.0214126,267194242.0,0.0,0.0
133,1758917373.6266649,267196847.0,16,0.0,270,148.99134635925293,-1.0,0,-1.0,-1.0,37.79998779296875,376.9000244140625,-200.15066666666664,160.12053333333333,1758917374.0001044,267197435.0,1758917374.7021713,267197922.0,-1.0,-1.0,1758917374.8511627,267198071.0,0.0,0.0
134,1758917377.080693,267200301.0,16,0.35,270,349.75576400756836,0.005840301513671875,1,-197.29998779296875,147.39999389648438,-126.9000244140625,-101.10000610351562,-200.15066666666664,160.12053333333333,1758917377.4580033,267200895.0,1758917378.2309158,267201451.0,1758917378.5910301,267201811.0,1758917378.5806715,267201801.0,0.0,0.0
135,1758917381.241575,267204461.0,16,0.35,270,296.56052589416504,0.005405426025390625,1,-185.9000244140625,199.5,-155.4000244140625,-159.39999389648438,-200.15066666666664,160.12053333333333,1758917381.4095738,267204847.0,1758917382.0650427,267205285.0,1758917382.3747692,267205595.0,1758917382.3616033,267205582.0,0.0,0.0
136,1758917385.0364745,267208257.0,16,0.2,270,224.70974922180176,0.005040884017944336,1,-174.70001220703125,192.89999389648438,-135.20001220703125,-161.29998779296875,-200.15066666666664,160.12053333333333,1758917385.1790895,267208613.0,1758917385.896044,267209116.0,1758917386.1306655,267209351.0,1758917386.1207538,267209341.0,0.0,0.0
137,1758917388.7933452,267212012.0,16,0.6,90,254.30893898010254,0.004083156585693359,1,-172.70001220703125,178.0,-96.5,-114.20001220703125,-200.15066666666664,160.12053333333333,1758917389.126984,267212562.0,1758917389.8262987,267213046.0,1758917390.0906935,267213311.0,1758917390.0806077,267213301.0,0.0,0.0
138,1758917392.6967244,267215915.0,16,0.0,270,215.95358848571777,0.0057981014251708984,1,-212.0,178.5,-149.4000244140625,-132.70001220703125,-200.15066666666664,160.12053333333333,1758917392.9815686,267216421.0,1758917393.8346152,267217055.0,1758917394.0604572,267217280.0,1758917394.0505688,267217271.0,0.0,0.0
139,1758917396.7473216,267219968.0,16,0.1,270,274.3039131164551,0.003476858139038086,1,-200.0,172.0,-169.0999755859375,-122.39999389648438,-200.15066666666664,160.12053333333333,1758917397.1216574,267220561.0,1758917397.7664843,267220987.0,1758917398.0503144,267221271.0,1758917398.0407882,267221261.0,0.0,0.0
140,1758917400.6765022,267223897.0,16,0.2,270,248.66962432861328,0.0048291683197021484,1,-188.79998779296875,182.70001220703125,-116.0999755859375,-116.70001220703125,-200.15066666666664,160.12053333333333,1758917400.8757524,267224315.0,1758917401.4216728,267224642.0,1758917401.680817,267224901.0,1758917401.6703424,267224891.0,0.0,0.0
141,1758917404.3603027,267227580.0,16,0.0,90,200.50811767578125,0.0051419734954833984,1,-207.0,193.10000610351562,-135.29998779296875,-119.60000610351562,-200.15066666666664,160.12053333333333,1758917404.524786,267227957.0,1758917405.1495416,267228368.0,1758917405.3602533,267228580.0,1758917405.3500497,267228570.0,0.0,0.0
142,1758917408.0233061,267231243.0,16,0.35,270,240.16833305358887,0.00458216667175293,1,-206.5999755859375,198.20001220703125,-130.5999755859375,-128.70001220703125,-200.15066666666664,160.12053333333333,1758917408.3367443,267231771.0,1758917409.1496775,267232370.0,1758917409.3997908,267232620.0,1758917409.3898458,267232610.0,0.0,0.0
143,1758917411.9927645,267235213.0,16,0.6,270,301.59854888916016,0.005518436431884766,1,-202.20001220703125,189.79998779296875,-164.0,-159.29998779296875,-200.15066666666664,160.12053333333333,1758917412.307159,267235741.0,1758917412.8180041,267236038.0,1758917413.129628,267236350.0,1758917413.1196027,267236340.0,0.0,0.0
144,1758917415.7965431,267239017.0,16,0.35,270,229.99000549316406,0.005924224853515625,1,-221.0,155.0,-151.0999755859375,-101.70001220703125,-200.15066666666664,160.12053333333333,1758917415.8020542,267239244.0,1758917416.7097337,267239930.0,1758917416.9496436,267240170.0,1758917416.9397237,267240160.0,0.0,0.0
145,1758917419.5686748,267242788.0,16,0.0,90,228.71756553649902,0.005439281463623047,1,-163.79998779296875,159.20001220703125,-56.70001220703125,-84.29998779296875,-200.15066666666664,160.12053333333333,1758917419.8795793,267243313.0,1758917420.711217,267243931.0,1758917420.9494798,267244170.0,1758917420.9399345,267244160.0,0.0,0.0
146,1758917423.5975513,267246818.0,16,0.1,90,247.0238208770752,0.002879619598388672,1,-171.0999755859375,179.39999389648438,-99.29998779296875,-103.60000610351562,-200.15066666666664,160.12053333333333,1758917423.8418436,267247274.0,1758917424.5534687,267247773.0,1758917424.8109848,267248031.0,1758917424.8004925,267248021.0,0.0,0.0
147,1758917427.273363,267250494.0,16,0.1,90,253.22699546813965,0.005323886871337891,1,-221.0999755859375,155.0,-157.9000244140625,-92.0,-200.15066666666664,160.12053333333333,1758917427.4183424,267250853.0,1758917428.147082,267251367.0,1758917428.414383,267251635.0,1758917428.400309,267251621.0,0.0,0.0
148,1758917430.8256555,267254046.0,16,0.2,270,282.5486660003662,0.004960298538208008,1,-217.70001220703125,148.70001220703125,-170.4000244140625,-91.29998779296875,-200.15066666666664,160.12053333333333,1758917430.8276455,267254250.0,1758917431.5868676,267254807.0,1758917431.8793359,267255099.0,1758917431.8694162,267255089.0,0.0,0.0
149,1758917434.4086084,267257629.0,16,0.2,90,235.47697067260742,0.005442380905151367,1,-168.79998779296875,161.20001220703125,-101.70001220703125,-101.39999389648438,-200.15066666666664,160.12053333333333,1758917434.60733,267258047.0,1758917435.3535955,267258574.0,1758917435.5991774,267258820.0,1758917435.5890725,267258809.0,0.0,0.0
150,1758917437.994796,267261215.0,16,0.0,90,238.0061149597168,0.005479335784912109,1,-196.5999755859375,192.79998779296875,-171.4000244140625,-164.79998779296875,-200.15066666666664,160.12053333333333,1758917438.2120152,267261650.0,1758917439.0010993,267262221.0,1758917439.249074,267262469.0,1758917439.2391055,267262459.0,0.0,0.0
151,1758917441.7321217,267264952.0,16,0.2,270,244.51112747192383,0.005926609039306641,1,-211.20001220703125,194.60000610351562,-180.9000244140625,-146.5,-200.15066666666664,160.12053333333333,1758917441.7380815,267265162.0,1758917442.6842532,267265904.0,1758917442.9386845,267266159.0,1758917442.9287643,267266149.0,0.0,0.0
152,1758917445.3626938,267268583.0,16,0.2,90,224.49350357055664,0.00493311882019043,1,-169.0999755859375,161.89999389648438,-53.0999755859375,-69.0,-200.15066666666664,160.12053333333333,1758917445.8629098,267269302.0,1758917446.644011,267269864.0,1758917446.8785262,267270099.0,1758917446.8685045,267270089.0,0.0,0.0
153,1758917449.4001324,267272620.0,16,0.2,90,356.4467430114746,0.004934787750244141,1,-174.79998779296875,221.5,-131.0,-153.29998779296875,-200.15066666666664,160.12053333333333,1758917449.6916072,267273124.0,1758917450.1923501,267273413.0,1758917450.5587142,267273779.0,1758917450.548797,267273769.0,0.0,0.0
154,1758917453.04355,267276264.0,16,0.6,90,239.5341396331787,0.004449605941772461,1,-176.5999755859375,160.5,-75.5999755859375,-86.39999389648438,-200.15066666666664,160.12053333333333,1758917453.1525364,267276592.0,1758917453.9190607,267277139.0,1758917454.1686037,267277389.0,1758917454.1585948,267277379.0,0.0,0.0
155,1758917456.5971322,267279817.0,16,0.1,90,303.62510681152344,0.005162477493286133,1,-187.20001220703125,165.5,-70.29998779296875,-80.5,-200.15066666666664,160.12053333333333,1758917456.7864385,267280221.0,1758917457.394769,267280615.0,1758917457.708273,267280929.0,1758917457.698394,267280919.0,0.0,0.0
156,1758917460.1965988,267283417.0,16,0.0,90,-1.0,-1.0,0,-1.0,-1.0,-1.0,-1.0,-200.15066666666664,160.12053333333333,1758917460.5620434,267283998.0,-1.0,-1.0,-1.0,-1.0,-1.0,-1.0,0.0,0.0
157,1758917462.6489162,267285869.0,16,0.2,270,260.3447437286377,0.0045163631439208984,1,-186.20001220703125,156.5,-168.5999755859375,-119.20001220703125,-200.15066666666664,160.12053333333333,1758917463.0208652,267286451.0,1758917463.6179807,267286838.0,1758917463.8879042,267287108.0,1758917463.8783255,267287099.0,0.0,0.0
158,1758917466.3582997,267289578.0,16,0.6,90,253.20696830749512,0.0048787593841552734,1,-185.0999755859375,170.5,-94.5999755859375,-103.89999389648438,-200.15066666666664,160.12053333333333,1758917466.546758,267289982.0,1758917467.4648345,267290685.0,1758917467.7281375,267290948.0,1758917467.7180414,267290938.0,0.0,0.0
159,1758917470.1895683,267293410.0,16,0.0,90,216.48144721984863,0.005326986312866211,1,-182.4000244140625,157.20001220703125,-74.20001220703125,-88.39999389648438,-200.15066666666664,160.12053333333333,1758917470.313139,267293746.0,1758917471.1820388,267294402.0,1758917471.4126182,267294633.0,1758917471.3985202,267294619.0,0.0,0.0
160,1758917473.8010035,267297021.0,16,0.35,90,194.3199634552002,0.004457950592041016,1,-177.0,161.70001220703125,-90.5,-86.60000610351562,-200.15066666666664,160.12053333333333,1758917473.9188628,267297357.0,1758917474.743585,267297964.0,1758917474.9478192,267298168.0,1758917474.937905,267298158.0,0.0,0.0
161,1758917477.498041,267300718.0,16,0.0,90,222.28360176086426,0.004029750823974609,1,-175.5,149.39999389648438,-38.79998779296875,-78.0,-200.15066666666664,160.12053333333333,1758917477.630973,267301067.0,1758917478.2156959,267301436.0,1758917478.4477258,267301668.0,1758917478.4379795,267301658.0,0.0,0.0
162,1758917480.8351595,267304055.0,16,0.35,90,261.6243362426758,0.004280567169189453,1,-159.0999755859375,177.5,-37.0999755859375,-74.5,-200.15066666666664,160.12053333333333,1758917480.958634,267304400.0,1758917481.6459627,267304866.0,1758917481.9176638,267305138.0,1758917481.907587,267305128.0,0.0,0.0
163,1758917484.3722928,267307593.0,16,0.2,90,244.02904510498047,0.004811525344848633,1,-177.0999755859375,194.5,-100.5,-116.79998779296875,-200.15066666666664,160.12053333333333,1758917484.5560887,267307992.0,1758917485.1946554,267308415.0,1758917485.4512725,267308671.0,1758917485.4386845,267308659.0,0.0,0.0
164,1758917488.0087192,267311229.0,16,0.2,270,218.69301795959473,0.0038225650787353516,1,-217.20001220703125,201.60000610351562,-63.79998779296875,-87.29998779296875,-200.15066666666664,160.12053333333333,1758917488.1325135,267311573.0,1758917488.9397101,267312160.0,1758917489.1702635,267312390.0,1758917489.1584032,267312379.0,0.0,0.0
165,1758917491.559082,267314779.0,16,0.0,90,268.4018611907959,0.0052869319915771484,1,-159.5,172.60000610351562,-112.5999755859375,-132.89999389648438,-200.15066666666664,160.12053333333333,1758917491.6965597,267315120.0,1758917492.3990197,267315619.0,1758917492.677072,267315897.0,1758917492.6674216,267315887.0,0.0,0.0
166,1758917495.1392689,267318360.0,16,0.6,270,268.2690620422363,0.004463672637939453,1,-221.20001220703125,164.29998779296875,-154.79998779296875,-120.0,-200.15066666666664,160.12053333333333,1758917495.4949622,267318929.0,1758917495.9987748,267319219.0,1758917496.2769635,267319497.0,1758917496.2670438,267319487.0,0.0,0.0
167,1758917498.6643689,267321884.0,16,0.2,90,-1.0,-1.0,0,-1.0,-1.0,-1.0,-1.0,-200.15066666666664,160.12053333333333,1758917498.9037614,267322324.0,-1.0,-1.0,-1.0,-1.0,-1.0,-1.0,0.0,0.0
