trial_index,speed,coherence,direction,side,saccade_rt,saccade_duration,correct,saccade_x,saccade_y,stim_x,stim_y
1,25,0.2,90,left,52.34217643737793,0.009813308715820312,1,-374.0999755859375,44.600006103515625,-400.3013333333333,0.0
2,25,0.0,270,left,-1.0,-1.0,0,-1.0,-1.0,-400.3013333333333,0.0
3,25,0.2,270,left,223.8149642944336,0.009510040283203125,1,-352.4000244140625,-4.5,-400.3013333333333,0.0
4,25,0.6,90,left,223.19793701171875,0.010187149047851562,1,-374.29998779296875,57.899993896484375,-400.3013333333333,0.0
5,25,0.2,90,left,279.494047164917,0.010213613510131836,1,-361.0999755859375,64.10000610351562,-400.3013333333333,0.0
6,25,0.0,270,left,269.2694664001465,0.00965261459350586,1,-392.20001220703125,7.5999755859375,-400.3013333333333,0.0
7,25,0.0,270,left,243.34311485290527,0.009424209594726562,1,-329.0999755859375,1.9000244140625,-400.3013333333333,0.0
8,25,0.35,90,left,240.56243896484375,0.00991964340209961,1,-347.0,-2.5999755859375,-400.3013333333333,0.0
9,25,0.2,90,left,235.40043830871582,0.00997304916381836,1,-358.0,41.399993896484375,-400.3013333333333,0.0
10,25,0.2,270,left,245.06139755249023,0.010047435760498047,1,-345.5,-4.9000244140625,-400.3013333333333,0.0
11,25,0.2,270,left,238.16251754760742,0.010053873062133789,1,-361.0999755859375,24.0999755859375,-400.3013333333333,0.0
12,25,0.1,90,left,248.10171127319336,0.010199785232543945,1,-358.79998779296875,9.0,-400.3013333333333,0.0
13,25,0.0,90,left,205.36088943481445,0.010273933410644531,1,-395.70001220703125,20.9000244140625,-400.3013333333333,0.0
14,25,0.35,90,left,269.3369388580322,0.009567499160766602,1,-364.0,33.899993896484375,-400.3013333333333,0.0
15,25,0.6,270,left,227.16975212097168,0.00991964340209961,1,-364.9000244140625,13.4000244140625,-400.3013333333333,0.0
16,25,0.35,270,left,228.65891456604004,0.009919881820678711,1,-345.20001220703125,7.20001220703125,-400.3013333333333,0.0
17,25,0.35,270,left,227.16975212097168,0.00991964340209961,1,-365.5,-29.0,-400.3013333333333,0.0
18,25,0.1,270,left,218.73760223388672,0.0049610137939453125,1,-311.70001220703125,2.20001220703125,-400.3013333333333,0.0
19,25,0.1,90,left,223.69861602783203,0.01587224006652832,1,-394.5,36.0,-400.3013333333333,0.0
20,25,0.1,90,left,211.98725700378418,0.009920120239257812,1,-313.70001220703125,17.9000244140625,-400.3013333333333,0.0
21,25,0.0,90,left,238.081693649292,0.010416269302368164,1,-370.9000244140625,28.0,-400.3013333333333,0.0
22,25,0.1,270,left,250.48279762268066,0.009940862655639648,1,-337.5,20.70001220703125,-400.3013333333333,0.0
23,25,0.0,270,left,257.48586654663086,0.009855270385742188,1,-336.0999755859375,15.5,-400.3013333333333,0.0
24,25,0.6,270,left,299.44467544555664,0.00952911376953125,1,-314.0999755859375,-7.0999755859375,-400.3013333333333,0.0
25,25,0.2,270,left,214.84780311584473,0.009881734848022461,1,-348.0,10.0999755859375,-400.3013333333333,0.0
26,25,0.1,90,left,308.3822727203369,0.009423494338989258,1,-393.4000244140625,22.0,-400.3013333333333,0.0
27,25,0.0,270,left,228.6994457244873,0.009613990783691406,1,-370.4000244140625,-2.20001220703125,-400.3013333333333,0.0
28,25,0.0,90,left,251.13368034362793,0.010007381439208984,1,-385.70001220703125,-12.20001220703125,-400.3013333333333,0.0
29,25,0.2,90,left,288.1779670715332,0.007935523986816406,1,-399.5,56.600006103515625,-400.3013333333333,0.0
30,25,0.1,90,left,237.0889186859131,0.009920358657836914,1,-352.79998779296875,28.399993896484375,-400.3013333333333,0.0
31,25,0.2,90,left,259.535551071167,0.010013103485107422,1,-349.5999755859375,39.5,-400.3013333333333,0.0
32,25,0.1,90,left,264.99128341674805,0.009751558303833008,1,-346.0999755859375,20.4000244140625,-400.3013333333333,0.0
33,25,0.0,270,left,-1.0,-1.0,0,-1.0,-1.0,-400.3013333333333,0.0
34,25,0.1,270,left,196.2287425994873,0.009919881820678711,1,-367.20001220703125,38.899993896484375,-400.3013333333333,0.0
35,25,0.2,270,left,268.9790725708008,0.00989532470703125,1,-382.29998779296875,64.0,-400.3013333333333,0.0
36,25,0.2,270,left,251.65224075317383,0.010103940963745117,1,-375.5,60.100006103515625,-400.3013333333333,0.0
37,25,0.1,270,left,224.1349220275879,0.019840002059936523,1,-407.0,58.5,-400.3013333333333,0.0
38,25,0.1,90,left,352.3075580596924,0.010350942611694336,1,-368.5999755859375,44.79998779296875,-400.3013333333333,0.0
39,25,0.6,270,left,224.13969039916992,0.010289192199707031,1,-341.29998779296875,-11.29998779296875,-400.3013333333333,0.0
40,25,0.2,90,left,284.94858741760254,0.010274410247802734,1,-311.79998779296875,38.100006103515625,-400.3013333333333,0.0
41,25,0.1,90,left,289.69764709472656,0.010006189346313477,1,-348.5999755859375,28.79998779296875,-400.3013333333333,0.0
42,25,0.1,90,left,202.1636962890625,0.010415792465209961,1,-356.79998779296875,47.399993896484375,-400.3013333333333,0.0
43,25,0.6,90,left,275.29025077819824,0.01040959358215332,1,-342.5,100.5,-400.3013333333333,0.0
44,25,0.1,90,left,472.86534309387207,0.0103607177734375,1,-334.29998779296875,57.399993896484375,-400.3013333333333,0.0
45,25,0.6,270,left,304.66198921203613,0.010463714599609375,1,-351.0999755859375,16.0,-400.3013333333333,0.0
46,25,0.0,90,left,206.46047592163086,0.009940862655639648,1,-348.0,20.70001220703125,-400.3013333333333,0.0
47,25,0.35,90,left,253.67283821105957,0.009965181350708008,1,-346.20001220703125,70.60000610351562,-400.3013333333333,0.0
48,25,0.0,90,left,244.33612823486328,0.009423971176147461,1,-323.0999755859375,28.899993896484375,-400.3013333333333,0.0
49,25,0.0,270,left,340.33966064453125,0.009716272354125977,1,-328.20001220703125,42.100006103515625,-400.3013333333333,0.0
50,25,0.35,90,left,282.2256088256836,0.0029764175415039062,1,-367.20001220703125,63.399993896484375,-400.3013333333333,0.0
51,25,0.2,90,left,202.866792678833,0.010911941528320312,1,-403.5,51.899993896484375,-400.3013333333333,0.0
52,25,0.0,90,left,224.68924522399902,0.0024805068969726562,1,-398.0999755859375,48.0,-400.3013333333333,0.0
53,25,0.1,270,left,285.2311134338379,0.00993204116821289,1,-255.5999755859375,-0.4000244140625,-400.3013333333333,0.0
54,25,0.1,270,left,258.9116096496582,0.009920120239257812,1,-359.5,67.20001220703125,-400.3013333333333,0.0
55,25,0.0,270,left,193.9868927001953,0.009788990020751953,1,-320.0999755859375,51.399993896484375,-400.3013333333333,0.0
56,25,0.1,270,left,305.62472343444824,0.009624481201171875,1,-385.70001220703125,17.5999755859375,-400.3013333333333,0.0
57,25,0.2,270,left,218.53208541870117,0.010097503662109375,1,-234.79998779296875,23.9000244140625,-400.3013333333333,0.0
58,25,0.35,270,left,244.0347671508789,0.010416030883789062,1,-346.70001220703125,40.29998779296875,-400.3013333333333,0.0
59,25,0.0,90,left,250.89406967163086,0.010416984558105469,1,-328.20001220703125,47.5,-400.3013333333333,0.0
60,25,0.1,270,left,280.66396713256836,0.009423255920410156,1,-367.0999755859375,33.0,-400.3013333333333,0.0
61,25,0.35,270,left,279.83880043029785,0.009919881820678711,1,-353.70001220703125,40.399993896484375,-400.3013333333333,0.0
62,25,0.0,270,left,289.8869514465332,0.009811878204345703,1,-344.4000244140625,20.0,-400.3013333333333,0.0
63,25,0.0,270,left,236.8485927581787,0.009601116180419922,1,-343.5,49.70001220703125,-400.3013333333333,0.0
64,25,0.6,90,left,254.08387184143066,0.009939908981323242,1,-353.9000244140625,77.79998779296875,-400.3013333333333,0.0
65,25,0.35,90,left,252.70366668701172,0.009967803955078125,1,-327.5,47.5,-400.3013333333333,0.0
66,25,0.0,270,left,315.69719314575195,0.009929418563842773,1,-337.0,21.4000244140625,-400.3013333333333,0.0
67,25,0.35,90,left,240.10515213012695,0.009933948516845703,1,-355.0,56.20001220703125,-400.3013333333333,0.0
68,25,0.35,270,left,162.75382041931152,-1.0,0,-1.0,-1.0,-400.3013333333333,0.0
69,25,0.35,90,left,244.36306953430176,0.010021686553955078,1,-326.79998779296875,29.5,-400.3013333333333,0.0
70,25,0.6,90,left,284.54089164733887,0.010407209396362305,1,-341.70001220703125,49.0,-400.3013333333333,0.0
71,25,0.0,90,left,247.23267555236816,0.010059833526611328,1,-396.9000244140625,77.0,-400.3013333333333,0.0
72,25,0.35,90,left,395.20978927612305,0.010502815246582031,1,-350.29998779296875,80.39999389648438,-400.3013333333333,0.0
73,25,0.6,270,left,217.09442138671875,0.009999275207519531,1,-367.70001220703125,-14.20001220703125,-400.3013333333333,0.0
74,25,0.0,270,left,234.4987392425537,0.010006189346313477,1,-346.70001220703125,65.29998779296875,-400.3013333333333,0.0
75,25,0.35,270,left,278.153657913208,0.010289192199707031,1,-326.4000244140625,39.79998779296875,-400.3013333333333,0.0
76,25,0.0,270,left,214.71810340881348,0.010042905807495117,1,-349.5,17.70001220703125,-400.3013333333333,0.0
77,25,0.6,270,left,212.36348152160645,0.009803533554077148,1,-359.5,34.100006103515625,-400.3013333333333,0.0
78,25,0.2,90,left,254.75811958312988,0.04967308044433594,1,-352.20001220703125,-203.5,-400.3013333333333,0.0
79,25,0.1,270,left,214.1127586364746,0.009697675704956055,1,-357.20001220703125,52.5,-400.3013333333333,0.0
80,25,0.0,90,left,348.85478019714355,-1.0,0,-1.0,-1.0,-400.3013333333333,0.0
81,25,0.0,90,left,345.92580795288086,0.010242938995361328,1,-355.5999755859375,56.79998779296875,-400.3013333333333,0.0
82,25,0.6,90,left,285.2323055267334,0.009919166564941406,1,-294.29998779296875,54.0,-400.3013333333333,0.0
83,25,0.2,270,left,96.82178497314453,-1.0,0,-1.0,-1.0,-400.3013333333333,0.0
84,25,0.2,270,left,231.68301582336426,0.010179996490478516,1,-328.0,35.600006103515625,-400.3013333333333,0.0
85,25,0.1,90,left,298.1564998626709,0.00987553596496582,1,-371.0,14.79998779296875,-400.3013333333333,0.0
86,25,0.1,270,left,241.35637283325195,0.009516716003417969,1,-276.0,36.70001220703125,-400.3013333333333,0.0
87,25,0.0,270,left,336.4987373352051,0.010272502899169922,1,-369.4000244140625,42.70001220703125,-400.3013333333333,0.0
88,25,0.35,90,left,254.9459934234619,0.008928775787353516,1,-327.9000244140625,44.5,-400.3013333333333,0.0
89,25,0.0,90,left,224.19476509094238,0.009919881820678711,1,-315.0,62.20001220703125,-400.3013333333333,0.0
90,25,0.0,90,left,289.1693115234375,0.010418415069580078,1,-303.29998779296875,77.89999389648438,-400.3013333333333,0.0
91,25,0.0,90,left,271.3150978088379,0.009920120239257812,1,-327.0999755859375,46.899993896484375,-400.3013333333333,0.0
92,25,0.2,270,left,276.2737274169922,0.01041865348815918,1,-358.20001220703125,44.70001220703125,-400.3013333333333,0.0
93,25,0.0,90,left,312.21938133239746,0.009928226470947266,1,-373.70001220703125,48.100006103515625,-400.3013333333333,0.0
94,25,0.0,90,left,198.52614402770996,0.009913444519042969,1,-323.79998779296875,13.5999755859375,-400.3013333333333,0.0
95,25,0.1,270,left,196.84600830078125,0.010381460189819336,1,-360.20001220703125,34.0,-400.3013333333333,0.0
96,25,0.0,270,left,282.8397750854492,0.009560823440551758,1,-325.4000244140625,56.899993896484375,-400.3013333333333,0.0
97,25,0.2,270,left,264.3287181854248,0.009917020797729492,1,-335.79998779296875,3.0999755859375,-400.3013333333333,0.0
98,25,0.0,270,left,202.05450057983398,0.009850025177001953,1,-369.5,48.100006103515625,-400.3013333333333,0.0
99,25,0.0,270,left,299.7889518737793,0.01039743423461914,1,-307.0999755859375,28.79998779296875,-400.3013333333333,0.0
100,25,0.6,90,left,226.1791229248047,0.014879465103149414,1,-368.20001220703125,68.5,-400.3013333333333,0.0
101,25,0.2,270,left,271.2268829345703,0.010021686553955078,1,-355.0999755859375,68.0,-400.3013333333333,0.0
102,25,0.1,270,left,239.59708213806152,0.010246753692626953,1,-347.29998779296875,-55.5999755859375,-400.3013333333333,0.0
103,25,0.6,270,left,0.0,-1.0,0,-1.0,-1.0,-400.3013333333333,0.0
104,25,0.2,90,left,271.8536853790283,0.010055065155029297,1,-325.4000244140625,56.70001220703125,-400.3013333333333,0.0
105,25,0.2,270,left,294.98887062072754,0.012896060943603516,1,-310.79998779296875,36.70001220703125,-400.3013333333333,0.0
106,25,0.1,270,left,229.78591918945312,0.009919404983520508,1,-325.4000244140625,43.20001220703125,-400.3013333333333,0.0
107,25,0.0,270,left,257.86876678466797,0.010037660598754883,1,-334.0,37.0,-400.3013333333333,0.0
108,25,0.2,90,left,278.9425849914551,0.009920597076416016,1,-313.70001220703125,49.29998779296875,-400.3013333333333,0.0
109,25,0.6,90,left,259.9055767059326,0.010416269302368164,1,-341.4000244140625,5.9000244140625,-400.3013333333333,0.0
110,25,0.35,270,left,298.5851764678955,0.010088920593261719,1,-355.5,40.0,-400.3013333333333,0.0
111,25,0.6,90,left,195.31536102294922,-1.0,0,-1.0,-1.0,-400.3013333333333,0.0
112,25,0.2,270,left,234.1139316558838,0.003473520278930664,1,-330.9000244140625,29.600006103515625,-400.3013333333333,0.0
113,25,0.2,90,left,230.27539253234863,0.01051783561706543,1,-321.5999755859375,51.79998779296875,-400.3013333333333,0.0
114,25,0.0,270,left,330.0919532775879,0.009954690933227539,1,-341.5,31.0,-400.3013333333333,0.0
115,25,0.6,90,left,221.602201461792,0.010339021682739258,1,-345.4000244140625,60.79998779296875,-400.3013333333333,0.0
116,25,0.2,90,left,341.7477607727051,0.008432388305664062,1,-367.0,36.5,-400.3013333333333,0.0
117,25,0.0,270,left,304.6598434448242,0.009570837020874023,1,-356.5999755859375,24.20001220703125,-400.3013333333333,0.0
118,25,0.1,90,left,-1.0,-1.0,0,-1.0,-1.0,-400.3013333333333,0.0
119,25,0.0,270,left,232.0244312286377,0.010030984878540039,1,-336.0999755859375,59.899993896484375,-400.3013333333333,0.0
120,25,0.35,270,left,251.969575881958,0.009920120239257812,1,-347.9000244140625,60.0,-400.3013333333333,0.0
121,25,0.6,90,left,222.21016883850098,-1.0,0,-1.0,-1.0,-400.3013333333333,0.0
122,25,0.1,90,left,279.2792320251465,0.010076761245727539,1,-343.29998779296875,-119.29998779296875,-400.3013333333333,0.0
123,25,0.2,270,left,-1.0,-1.0,0,-1.0,-1.0,-400.3013333333333,0.0
124,25,0.2,90,left,226.15814208984375,0.010021448135375977,1,-355.20001220703125,58.5,-400.3013333333333,0.0
125,25,0.1,270,left,220.36361694335938,0.009971857070922852,1,-311.4000244140625,41.20001220703125,-400.3013333333333,0.0
126,25,0.2,270,left,339.82062339782715,0.009589910507202148,1,-337.9000244140625,43.0,-400.3013333333333,0.0
127,25,0.0,90,left,-1.0,-1.0,0,-1.0,-1.0,-400.3013333333333,0.0
128,25,0.1,270,left,212.94522285461426,0.010153532028198242,1,-329.0,59.100006103515625,-400.3013333333333,0.0
129,25,0.35,90,left,366.05215072631836,0.009424686431884766,1,-304.79998779296875,48.399993896484375,-400.3013333333333,0.0
130,25,0.0,90,left,225.90184211730957,0.008926868438720703,1,-290.0999755859375,-6.4000244140625,-400.3013333333333,0.0
131,25,0.35,270,left,407.3605537414551,0.00941777229309082,1,-346.0,-142.70001220703125,-400.3013333333333,0.0
132,25,0.6,270,left,225.60548782348633,0.01041412353515625,1,-318.20001220703125,0.5999755859375,-400.3013333333333,0.0
133,25,0.0,90,left,338.8943672180176,0.009405374526977539,1,-394.4000244140625,-0.5999755859375,-400.3013333333333,0.0
134,25,0.2,270,left,411.55242919921875,0.009575366973876953,1,-261.4000244140625,-41.0,-400.3013333333333,0.0
135,25,0.2,270,left,255.31530380249023,0.030191659927368164,1,-347.4000244140625,-193.4000244140625,-400.3013333333333,0.0
136,25,0.35,90,left,261.4119052886963,0.01024937629699707,1,-374.5999755859375,87.29998779296875,-400.3013333333333,0.0
137,25,0.1,90,left,258.24475288391113,0.01047825813293457,1,-366.4000244140625,36.600006103515625,-400.3013333333333,0.0
138,25,0.35,270,left,367.1753406524658,0.010159492492675781,1,-327.4000244140625,-40.70001220703125,-400.3013333333333,0.0
139,25,0.1,270,left,216.1715030670166,0.010573387145996094,1,-370.5999755859375,20.5999755859375,-400.3013333333333,0.0
140,25,0.6,270,left,252.5928020477295,0.011110067367553711,1,-345.0,-0.0999755859375,-400.3013333333333,0.0
141,25,0.0,270,left,244.401216506958,-1.0,0,-1.0,-1.0,-400.3013333333333,0.0
142,25,0.35,90,left,290.85230827331543,0.010044336318969727,1,-330.79998779296875,68.5,-400.3013333333333,0.0
143,25,0.35,270,left,296.51331901550293,0.010004758834838867,1,-323.0999755859375,4.70001220703125,-400.3013333333333,0.0
144,25,0.6,270,left,289.23964500427246,0.01016545295715332,1,-346.70001220703125,-61.79998779296875,-400.3013333333333,0.0
145,25,0.6,270,left,286.9229316711426,0.010198354721069336,1,-357.70001220703125,-177.5,-400.3013333333333,0.0
146,25,0.1,90,left,232.51748085021973,0.009919881820678711,1,-307.0,60.70001220703125,-400.3013333333333,0.0
147,25,0.2,90,left,297.60241508483887,0.008928537368774414,1,-262.5999755859375,35.100006103515625,-400.3013333333333,0.0
148,25,0.0,270,left,286.11302375793457,0.009720802307128906,1,-310.20001220703125,-70.5999755859375,-400.3013333333333,0.0
149,25,0.35,270,left,394.2751884460449,0.009703636169433594,1,-307.9000244140625,11.0,-400.3013333333333,0.0
150,25,0.6,270,left,239.58420753479004,0.010391712188720703,1,-355.0999755859375,-55.79998779296875,-400.3013333333333,0.0
151,25,0.6,90,left,256.07776641845703,0.010912179946899414,1,-322.0999755859375,64.70001220703125,-400.3013333333333,0.0
152,25,0.0,270,left,274.78814125061035,0.010415077209472656,1,-345.5999755859375,-58.29998779296875,-400.3013333333333,0.0
153,25,0.1,90,left,375.9763240814209,0.009448766708374023,1,-251.5999755859375,94.5,-400.3013333333333,0.0
154,25,0.2,270,left,267.37260818481445,0.010411500930786133,1,-360.79998779296875,98.5,-400.3013333333333,0.0
155,25,0.35,90,left,268.83554458618164,0.009918928146362305,1,-275.0999755859375,88.39999389648438,-400.3013333333333,0.0
156,25,0.2,270,left,259.5365047454834,0.009652376174926758,1,-321.0,62.20001220703125,-400.3013333333333,0.0
157,25,0.2,270,left,280.46464920043945,0.010912418365478516,1,-376.4000244140625,-30.70001220703125,-400.3013333333333,0.0
158,25,0.0,90,left,230.01551628112793,0.010090112686157227,1,-377.70001220703125,-61.0,-400.3013333333333,0.0
159,25,0.35,270,left,266.8652534484863,0.010402917861938477,1,-323.20001220703125,58.399993896484375,-400.3013333333333,0.0
160,25,0.2,90,left,235.55684089660645,0.011024951934814453,1,-360.0999755859375,84.39999389648438,-400.3013333333333,0.0
161,25,0.6,270,left,260.6310844421387,0.009444713592529297,1,-346.9000244140625,-136.0,-400.3013333333333,0.0
162,25,0.0,90,left,328.9663791656494,0.009447097778320312,1,-416.0,-123.5999755859375,-400.3013333333333,0.0
163,25,0.2,270,left,247.83849716186523,0.010074138641357422,1,-340.9000244140625,80.60000610351562,-400.3013333333333,0.0
164,25,0.2,270,left,257.71307945251465,0.009592056274414062,1,-319.0999755859375,-71.70001220703125,-400.3013333333333,0.0
165,25,0.2,90,left,226.04846954345703,0.009980440139770508,1,-304.5,68.29998779296875,-400.3013333333333,0.0
166,25,0.1,90,left,187.20149993896484,0.009671926498413086,1,-289.4000244140625,65.79998779296875,-400.3013333333333,0.0
167,25,0.6,270,left,231.63247108459473,0.01007390022277832,1,-350.79998779296875,-21.4000244140625,-400.3013333333333,0.0
168,25,0.35,270,left,344.22779083251953,0.009919881820678711,1,-314.5999755859375,-65.70001220703125,-400.3013333333333,0.0
169,25,0.1,270,left,303.0269145965576,0.009492874145507812,1,-287.0999755859375,45.79998779296875,-400.3013333333333,0.0
170,25,0.6,90,left,253.70454788208008,0.00991964340209961,1,-319.9000244140625,100.39999389648438,-400.3013333333333,0.0
171,25,0.1,90,left,332.81826972961426,0.009921073913574219,1,-331.79998779296875,55.0,-400.3013333333333,0.0
172,25,0.6,270,left,249.7403621673584,0.009540796279907227,1,-327.5999755859375,-31.70001220703125,-400.3013333333333,0.0
173,25,0.0,270,left,494.0922260284424,0.010489702224731445,1,-378.5999755859375,49.0,-400.3013333333333,0.0
174,25,0.0,90,left,247.8652000427246,0.009918212890625,1,-365.70001220703125,45.29998779296875,-400.3013333333333,0.0
175,25,0.1,90,left,295.6202030181885,0.010415077209472656,1,-343.79998779296875,32.899993896484375,-400.3013333333333,0.0
176,25,0.2,90,left,239.74347114562988,0.010492086410522461,1,-341.0,72.29998779296875,-400.3013333333333,0.0
177,25,0.6,270,left,237.58745193481445,0.008927106857299805,1,-350.0999755859375,37.79998779296875,-400.3013333333333,0.0
178,25,0.2,270,left,258.39710235595703,0.010274887084960938,1,-374.20001220703125,62.79998779296875,-400.3013333333333,0.0
179,25,0.1,270,left,278.43236923217773,0.009683370590209961,1,-339.5,-44.79998779296875,-400.3013333333333,0.0
180,25,0.6,270,left,369.58765983581543,0.010129451751708984,1,-336.5,-125.70001220703125,-400.3013333333333,0.0
181,25,0.0,90,left,223.20270538330078,0.009919404983520508,1,-317.79998779296875,63.70001220703125,-400.3013333333333,0.0
182,25,0.2,270,left,302.46424674987793,0.010445833206176758,1,-315.0,39.5,-400.3013333333333,0.0
183,25,0.0,270,left,264.50371742248535,0.009801387786865234,1,-342.9000244140625,58.70001220703125,-400.3013333333333,0.0
184,25,0.35,90,left,200.02365112304688,0.010230064392089844,1,-345.20001220703125,39.20001220703125,-400.3013333333333,0.0
185,25,0.0,270,left,296.1139678955078,0.009920835494995117,1,-357.5999755859375,-74.0,-400.3013333333333,0.0
186,25,0.6,90,left,160.22300720214844,-1.0,0,-1.0,-1.0,-400.3013333333333,0.0
187,25,0.2,90,left,286.7608070373535,0.010190963745117188,1,-390.70001220703125,8.0,-400.3013333333333,0.0
188,25,0.1,270,left,250.04029273986816,0.010393142700195312,1,-310.29998779296875,39.29998779296875,-400.3013333333333,0.0
189,25,0.0,90,left,295.7725524902344,0.010072469711303711,1,-358.4000244140625,-84.4000244140625,-400.3013333333333,0.0
190,25,0.2,270,left,254.99629974365234,0.010133743286132812,1,-344.5,-91.4000244140625,-400.3013333333333,0.0
191,25,0.0,270,left,226.35221481323242,0.009646892547607422,1,-296.79998779296875,14.20001220703125,-400.3013333333333,0.0
192,25,0.6,270,left,213.57250213623047,0.009804725646972656,1,-313.70001220703125,12.5999755859375,-400.3013333333333,0.0
193,25,0.35,270,left,271.6388702392578,0.010265588760375977,1,-355.29998779296875,56.600006103515625,-400.3013333333333,0.0
194,25,0.35,270,left,-1.0,-1.0,0,-1.0,-1.0,-400.3013333333333,0.0
195,25,0.2,90,left,207.33141899108887,0.009920120239257812,1,-302.9000244140625,57.79998779296875,-400.3013333333333,0.0
196,25,0.1,90,left,108.48259925842285,0.10992836952209473,1,-322.29998779296875,-65.5999755859375,-400.3013333333333,0.0
197,25,0.1,90,left,275.7694721221924,0.009535551071166992,1,-368.20001220703125,39.20001220703125,-400.3013333333333,0.0
198,25,0.6,90,left,25.148391723632812,-1.0,0,-1.0,-1.0,-400.3013333333333,0.0
199,25,0.1,90,left,-1.0,-1.0,0,-1.0,-1.0,-400.3013333333333,0.0
200,25,0.35,270,left,233.95204544067383,0.011258363723754883,1,-347.20001220703125,37.0,-400.3013333333333,0.0
201,25,0.6,90,left,171.82278633117676,-1.0,0,-1.0,-1.0,-400.3013333333333,0.0
202,25,0.0,90,left,314.96119499206543,0.01028895378112793,1,-406.70001220703125,-9.4000244140625,-400.3013333333333,0.0
203,25,0.1,90,left,219.20299530029297,0.010009765625,1,-327.0999755859375,57.70001220703125,-400.3013333333333,0.0
204,25,0.2,90,left,297.82700538635254,0.010040521621704102,1,-346.79998779296875,-39.0999755859375,-400.3013333333333,0.0
205,25,0.1,90,left,253.5076141357422,0.010202169418334961,1,-329.79998779296875,55.70001220703125,-400.3013333333333,0.0
206,25,0.2,270,left,261.1258029937744,0.01041102409362793,1,-377.29998779296875,67.0,-400.3013333333333,0.0
207,25,0.2,270,left,200.91629028320312,0.009991168975830078,1,-328.70001220703125,5.4000244140625,-400.3013333333333,0.0
208,25,0.2,270,left,323.13084602355957,0.0095062255859375,1,-334.0999755859375,26.5999755859375,-400.3013333333333,0.0
209,25,0.1,270,left,316.4832592010498,0.010387420654296875,1,-325.79998779296875,0.5999755859375,-400.3013333333333,0.0
210,25,0.6,270,left,232.1298122406006,0.009920597076416016,1,-310.29998779296875,42.0,-400.3013333333333,0.0
211,25,0.1,270,left,373.3654022216797,0.00971364974975586,1,-321.9000244140625,-3.70001220703125,-400.3013333333333,0.0
212,25,0.6,270,left,-1.0,-1.0,0,-1.0,-1.0,-400.3013333333333,0.0
213,25,0.35,270,left,-1.0,-1.0,0,-1.0,-1.0,-400.3013333333333,0.0
214,25,0.35,270,left,212.62764930725098,0.01006007194519043,1,-356.20001220703125,50.70001220703125,-400.3013333333333,0.0
215,25,0.1,90,left,246.51360511779785,0.007441520690917969,1,-324.5,-3.9000244140625,-400.3013333333333,0.0
216,25,0.1,90,left,218.73903274536133,0.007440090179443359,1,-352.4000244140625,-74.5999755859375,-400.3013333333333,0.0
217,25,0.0,90,left,188.48347663879395,0.06001591682434082,1,-352.5,-195.29998779296875,-400.3013333333333,0.0
218,25,0.0,90,left,237.0893955230713,0.010416030883789062,1,-358.70001220703125,-25.0999755859375,-400.3013333333333,0.0
219,25,0.35,90,left,281.4514636993408,0.00942540168762207,1,-343.9000244140625,-10.5999755859375,-400.3013333333333,0.0
220,25,0.6,270,left,226.1946201324463,0.01003408432006836,1,-326.20001220703125,-118.0999755859375,-400.3013333333333,0.0
221,25,0.35,90,left,272.5043296813965,0.010116815567016602,1,-303.20001220703125,66.5,-400.3013333333333,0.0
222,25,0.6,270,left,216.76397323608398,0.009633302688598633,1,-339.0999755859375,-56.5,-400.3013333333333,0.0
223,25,0.6,270,left,233.21771621704102,0.009549140930175781,1,-338.20001220703125,22.5,-400.3013333333333,0.0
224,25,0.2,90,left,259.9062919616699,0.008928775787353516,1,-352.20001220703125,58.20001220703125,-400.3013333333333,0.0
225,25,0.2,270,left,-1.0,-1.0,0,-1.0,-1.0,-400.3013333333333,0.0
226,25,0.6,90,left,115.5698299407959,-1.0,0,-1.0,-1.0,-400.3013333333333,0.0
227,25,0.2,270,left,141.36242866516113,-1.0,0,-1.0,-1.0,-400.3013333333333,0.0
228,25,0.0,270,left,223.3421802520752,0.01037144660949707,1,-328.9000244140625,55.0,-400.3013333333333,0.0
229,25,0.6,270,left,318.97521018981934,-1.0,0,-1.0,-1.0,-400.3013333333333,0.0
230,25,0.35,90,left,411.12208366394043,0.009763002395629883,1,-278.5,65.0,-400.3013333333333,0.0
231,25,0.6,90,left,-1.0,-1.0,0,-1.0,-1.0,-400.3013333333333,0.0
232,25,0.35,270,left,-1.0,-1.0,0,-1.0,-1.0,-400.3013333333333,0.0
233,25,0.2,90,left,422.4512577056885,-1.0,0,-1.0,-1.0,-400.3013333333333,0.0
234,25,0.0,90,left,335.28685569763184,0.009714841842651367,1,-278.9000244140625,40.600006103515625,-400.3013333333333,0.0
235,25,0.2,90,left,-1.0,-1.0,0,-1.0,-1.0,-400.3013333333333,0.0
237,25,0.6,90,left,213.80972862243652,0.009665250778198242,1,-333.70001220703125,37.20001220703125,-400.3013333333333,0.0
238,25,0.1,270,left,312.73388862609863,0.009525537490844727,1,-379.20001220703125,-78.0,-400.3013333333333,0.0
239,25,0.6,270,left,207.96895027160645,0.009919404983520508,1,-319.29998779296875,16.79998779296875,-400.3013333333333,0.0
240,25,0.0,270,left,177.1378517150879,0.010046720504760742,1,-379.0,32.79998779296875,-400.3013333333333,0.0
241,25,0.35,90,left,237.66350746154785,0.010572195053100586,1,-352.9000244140625,52.600006103515625,-400.3013333333333,0.0
242,25,0.35,270,left,226.1791229248047,0.0089263916015625,1,-356.79998779296875,25.20001220703125,-400.3013333333333,0.0
243,25,0.2,90,left,194.85950469970703,0.00976109504699707,1,-335.9000244140625,56.20001220703125,-400.3013333333333,0.0
244,25,0.2,270,left,246.0184097290039,0.007935285568237305,1,-367.5,59.899993896484375,-400.3013333333333,0.0
245,25,0.2,270,left,241.12939834594727,0.008432149887084961,1,-345.79998779296875,61.899993896484375,-400.3013333333333,0.0
246,25,0.6,270,left,252.07114219665527,0.010012149810791016,1,-387.29998779296875,-61.20001220703125,-400.3013333333333,0.0
247,25,0.6,90,left,239.11404609680176,0.010077714920043945,1,-414.0,-58.0999755859375,-400.3013333333333,0.0
248,25,0.1,270,left,254.12845611572266,0.010003089904785156,1,-329.4000244140625,30.70001220703125,-400.3013333333333,0.0
249,25,0.1,90,left,217.61798858642578,0.00994729995727539,1,-356.29998779296875,70.39999389648438,-400.3013333333333,0.0
250,25,0.1,270,left,381.9241523742676,0.012399673461914062,1,-335.5,15.29998779296875,-400.3013333333333,0.0
251,25,0.1,90,left,248.8086223602295,0.009627103805541992,1,-328.0999755859375,95.5,-400.3013333333333,0.0
252,25,0.2,90,left,267.9305076599121,0.010417699813842773,1,-377.5,70.39999389648438,-400.3013333333333,0.0
253,25,0.35,90,left,242.0487403869629,0.01041722297668457,1,-349.0999755859375,85.20001220703125,-400.3013333333333,0.0
254,25,0.6,270,left,227.16951370239258,0.01140904426574707,1,-350.0,-14.20001220703125,-400.3013333333333,0.0
255,25,0.6,90,left,264.38450813293457,0.010226011276245117,1,-335.5999755859375,58.20001220703125,-400.3013333333333,0.0
256,25,0.35,270,left,204.94699478149414,0.009939193725585938,1,-316.20001220703125,53.79998779296875,-400.3013333333333,0.0
257,25,0.1,270,left,219.01702880859375,0.009635448455810547,1,-327.79998779296875,72.60000610351562,-400.3013333333333,0.0
258,25,0.0,90,left,253.86762619018555,0.010046720504760742,1,-338.4000244140625,55.70001220703125,-400.3013333333333,0.0
259,25,0.6,270,left,211.29846572875977,0.010415315628051758,1,-316.0,7.0,-400.3013333333333,0.0
260,25,0.35,270,left,209.75422859191895,0.009440422058105469,1,-303.5,52.899993896484375,-400.3013333333333,0.0
261,25,0.2,270,left,211.0884189605713,0.010664939880371094,1,-348.0,-48.70001220703125,-400.3013333333333,0.0
262,25,0.0,270,left,267.8415775299072,0.010416269302368164,1,-377.20001220703125,30.899993896484375,-400.3013333333333,0.0
263,25,0.2,90,left,195.4212188720703,0.010478019714355469,1,-340.0999755859375,42.20001220703125,-400.3013333333333,0.0
264,25,0.35,270,left,221.83966636657715,0.010208606719970703,1,-368.70001220703125,37.5,-400.3013333333333,0.0
265,25,0.2,90,left,228.47580909729004,0.009829282760620117,1,-280.0999755859375,59.899993896484375,-400.3013333333333,0.0
266,25,0.0,90,left,269.32430267333984,0.010812044143676758,1,-368.9000244140625,64.0,-400.3013333333333,0.0
267,25,0.1,90,left,227.10943222045898,0.00995016098022461,1,-365.70001220703125,-47.4000244140625,-400.3013333333333,0.0
268,25,0.35,270,left,225.45242309570312,0.010184288024902344,1,-314.5999755859375,24.9000244140625,-400.3013333333333,0.0
269,25,0.2,270,left,276.9467830657959,0.010413169860839844,1,-393.0,-78.5,-400.3013333333333,0.0
270,25,0.2,90,left,234.114408493042,0.009920358657836914,1,-347.29998779296875,60.100006103515625,-400.3013333333333,0.0
271,25,0.1,270,left,276.2901782989502,0.010166645050048828,1,-349.20001220703125,26.0999755859375,-400.3013333333333,0.0
272,25,0.2,90,left,273.087739944458,0.012398958206176758,1,-371.9000244140625,95.89999389648438,-400.3013333333333,0.0
273,25,0.1,270,left,213.60540390014648,0.010461568832397461,1,-327.5,77.89999389648438,-400.3013333333333,0.0
274,25,0.2,270,left,224.66015815734863,0.00992131233215332,1,-380.70001220703125,50.5,-400.3013333333333,0.0
275,25,0.0,90,left,335.53004264831543,0.010210275650024414,1,-351.70001220703125,72.0,-400.3013333333333,0.0
276,25,0.0,270,left,288.1779670715332,0.010416746139526367,1,-316.20001220703125,41.0,-400.3013333333333,0.0
277,25,0.35,90,left,355.3445339202881,0.009630680084228516,1,-302.5999755859375,65.89999389648438,-400.3013333333333,0.0
278,25,0.1,90,left,180.59325218200684,-1.0,0,-1.0,-1.0,-400.3013333333333,0.0
279,25,0.1,90,left,258.42809677124023,0.011121034622192383,1,-346.5,66.10000610351562,-400.3013333333333,0.0
280,25,0.35,90,left,217.29493141174316,0.010569334030151367,1,-343.9000244140625,60.70001220703125,-400.3013333333333,0.0
281,25,0.2,270,left,300.92549324035645,0.009914159774780273,1,-344.0999755859375,22.0,-400.3013333333333,0.0
282,25,0.1,270,left,200.8821964263916,0.008431434631347656,1,-246.4000244140625,40.100006103515625,-400.3013333333333,0.0
283,25,0.1,270,left,211.29870414733887,0.01041555404663086,1,-323.0999755859375,100.79998779296875,-400.3013333333333,0.0
284,25,0.35,90,left,161.6995334625244,0.01438283920288086,1,-368.0999755859375,85.0,-400.3013333333333,0.0
285,25,0.0,90,left,257.2484016418457,0.009917497634887695,1,-337.0,46.899993896484375,-400.3013333333333,0.0
286,25,0.35,270,left,280.63130378723145,0.010048151016235352,1,-343.79998779296875,9.4000244140625,-400.3013333333333,0.0
287,25,0.0,90,left,292.3626899719238,0.009920835494995117,1,-340.0,44.29998779296875,-400.3013333333333,0.0
288,25,0.6,90,left,0.4990100860595703,-1.0,0,-1.0,-1.0,-400.3013333333333,0.0
289,25,0.0,270,left,219.51007843017578,0.009762048721313477,1,-392.20001220703125,85.39999389648438,-400.3013333333333,0.0
290,25,0.0,90,left,250.37026405334473,0.009657859802246094,1,-307.5,49.29998779296875,-400.3013333333333,0.0
291,25,0.0,90,left,242.15054512023926,0.010162115097045898,1,-362.5999755859375,40.20001220703125,-400.3013333333333,0.0
292,25,0.35,90,left,230.3171157836914,-1.0,0,-1.0,-1.0,-400.3013333333333,0.0
293,25,0.0,90,left,208.99629592895508,0.010030984878540039,1,-369.79998779296875,-74.0,-400.3013333333333,0.0
294,25,0.0,90,left,238.27719688415527,0.009996652603149414,1,-376.0999755859375,61.20001220703125,-400.3013333333333,0.0
295,25,0.6,270,left,232.76591300964355,0.010207891464233398,1,-364.5,18.70001220703125,-400.3013333333333,0.0
296,25,0.6,270,left,261.2922191619873,0.010115861892700195,1,-386.4000244140625,-162.70001220703125,-400.3013333333333,0.0
297,25,0.35,270,left,235.25691032409668,0.0106658935546875,1,-363.0999755859375,59.79998779296875,-400.3013333333333,0.0
298,25,0.2,270,left,238.4030818939209,0.010084867477416992,1,-341.79998779296875,0.70001220703125,-400.3013333333333,0.0
299,25,0.0,270,left,-1.0,-1.0,0,-1.0,-1.0,-400.3013333333333,0.0
300,25,0.0,90,left,157.96160697937012,-1.0,0,-1.0,-1.0,-400.3013333333333,0.0
301,25,0.0,270,left,202.79264450073242,0.009727716445922852,1,-349.5,-17.70001220703125,-400.3013333333333,0.0
302,25,0.2,90,left,258.9149475097656,0.00991964340209961,1,-328.5999755859375,-137.20001220703125,-400.3013333333333,0.0
303,25,0.1,270,left,224.69091415405273,0.009920358657836914,1,-289.0,38.0,-400.3013333333333,0.0
304,25,0.1,90,left,416.14794731140137,0.005456686019897461,1,-287.0999755859375,25.20001220703125,-400.3013333333333,0.0
305,25,0.1,270,left,235.8560562133789,0.010416984558105469,1,-327.4000244140625,24.9000244140625,-400.3013333333333,0.0
306,25,0.0,90,left,261.7149353027344,0.009943246841430664,1,-378.0999755859375,-67.4000244140625,-400.3013333333333,0.0
307,25,0.35,90,left,282.88722038269043,0.008927106857299805,1,-351.4000244140625,55.100006103515625,-400.3013333333333,0.0
308,25,0.2,90,left,263.87500762939453,0.009914398193359375,1,-363.20001220703125,61.600006103515625,-400.3013333333333,0.0
309,25,0.1,270,left,224.9307632446289,0.010014772415161133,1,-350.0999755859375,74.89999389648438,-400.3013333333333,0.0
310,25,0.35,90,left,-1.0,-1.0,0,-1.0,-1.0,-400.3013333333333,0.0
311,25,0.35,90,left,209.98477935791016,-1.0,0,-1.0,-1.0,-400.3013333333333,0.0
312,25,0.1,90,left,237.1511459350586,0.009972572326660156,1,-325.79998779296875,45.0,-400.3013333333333,0.0
313,25,0.1,270,left,231.73284530639648,0.009920835494995117,1,-347.0999755859375,64.70001220703125,-400.3013333333333,0.0
314,25,0.35,90,left,248.0018138885498,0.009920597076416016,1,-281.5999755859375,42.899993896484375,-400.3013333333333,0.0
315,25,0.35,270,left,294.35014724731445,0.009853124618530273,1,-358.0,-80.0999755859375,-400.3013333333333,0.0
316,25,0.6,90,left,219.01869773864746,0.010209083557128906,1,-309.79998779296875,17.4000244140625,-400.3013333333333,0.0
317,25,0.6,90,left,252.31575965881348,0.009999990463256836,1,-321.79998779296875,41.600006103515625,-400.3013333333333,0.0
318,25,0.0,270,left,197.20816612243652,0.01031041145324707,1,-375.0999755859375,-60.79998779296875,-400.3013333333333,0.0
319,25,0.0,90,left,243.40319633483887,0.009920120239257812,1,-317.79998779296875,-25.79998779296875,-400.3013333333333,0.0
320,25,0.0,270,left,197.82543182373047,0.01003575325012207,1,-347.9000244140625,96.5,-400.3013333333333,0.0
321,25,0.2,270,left,364.1829490661621,0.01017141342163086,1,-322.5999755859375,69.70001220703125,-400.3013333333333,0.0
322,25,0.0,90,left,-1.0,-1.0,0,-1.0,-1.0,-400.3013333333333,0.0
323,25,0.35,270,left,251.36113166809082,0.009921550750732422,1,-337.29998779296875,-70.9000244140625,-400.3013333333333,0.0
324,25,0.2,270,left,277.7135372161865,0.010065317153930664,1,-330.5999755859375,54.20001220703125,-400.3013333333333,0.0
325,25,0.0,90,left,222.4879264831543,0.00999307632446289,1,-385.29998779296875,56.0,-400.3013333333333,0.0
326,25,0.1,90,left,260.9884738922119,0.009964466094970703,1,-296.29998779296875,-63.5,-400.3013333333333,0.0
327,25,0.35,270,left,243.49522590637207,0.009542703628540039,1,-383.4000244140625,-89.0,-400.3013333333333,0.0
328,25,0.6,270,left,298.3052730560303,-1.0,0,-1.0,-1.0,-400.3013333333333,0.0
329,25,0.1,90,left,-1.0,-1.0,0,-1.0,-1.0,-400.3013333333333,0.0
330,25,0.0,90,left,280.05027770996094,0.010041236877441406,1,-404.29998779296875,-4.0999755859375,-400.3013333333333,0.0
331,25,0.0,270,left,282.02223777770996,0.010144472122192383,1,-270.5,76.79998779296875,-400.3013333333333,0.0
332,25,0.2,90,left,240.8764362335205,0.009985685348510742,1,-338.5999755859375,79.79998779296875,-400.3013333333333,0.0
333,25,0.6,270,left,280.3003787994385,0.010120868682861328,1,-337.79998779296875,-109.79998779296875,-400.3013333333333,0.0
334,25,0.6,270,left,-1.0,-1.0,0,-1.0,-1.0,-400.3013333333333,0.0
335,25,0.35,90,left,281.42237663269043,0.010418415069580078,1,-356.79998779296875,70.79998779296875,-400.3013333333333,0.0
336,25,0.1,270,left,248.49987030029297,0.00991964340209961,1,-316.70001220703125,-7.20001220703125,-400.3013333333333,0.0
337,25,0.35,90,left,321.78187370300293,0.009498834609985352,1,-342.79998779296875,87.5,-400.3013333333333,0.0
338,25,0.2,90,left,285.1593494415283,0.0101318359375,1,-328.29998779296875,70.10000610351562,-400.3013333333333,0.0
339,25,0.0,90,left,273.79465103149414,0.031248092651367188,1,-354.5999755859375,76.0,-400.3013333333333,0.0
340,25,0.1,90,left,257.4269771575928,0.009920835494995117,1,-387.70001220703125,126.10000610351562,-400.3013333333333,0.0
341,25,0.35,270,left,228.35755348205566,0.009999513626098633,1,-270.70001220703125,-42.79998779296875,-400.3013333333333,0.0
342,25,0.35,90,left,249.72033500671387,0.009919881820678711,1,-350.0999755859375,95.39999389648438,-400.3013333333333,0.0
343,25,0.35,90,left,258.8043212890625,0.010100603103637695,1,-340.70001220703125,104.29998779296875,-400.3013333333333,0.0
344,25,0.35,270,left,294.6276664733887,0.012399673461914062,1,-310.70001220703125,-31.5,-400.3013333333333,0.0
345,25,0.0,270,left,0.0,-1.0,0,-1.0,-1.0,-400.3013333333333,0.0
346,25,0.1,90,left,-1.0,-1.0,0,-1.0,-1.0,-400.3013333333333,0.0
347,25,0.1,270,left,229.22182083129883,0.009923458099365234,1,-335.20001220703125,33.79998779296875,-400.3013333333333,0.0
348,25,0.1,270,left,212.23115921020508,0.009919404983520508,1,-355.9000244140625,-74.70001220703125,-400.3013333333333,0.0
349,25,0.6,270,left,-1.0,-1.0,0,-1.0,-1.0,-400.3013333333333,0.0
350,25,0.2,270,left,343.2345390319824,0.00942540168762207,1,-355.4000244140625,-44.29998779296875,-400.3013333333333,0.0
351,25,0.35,90,left,241.0566806793213,0.02281641960144043,1,-412.20001220703125,20.70001220703125,-400.3013333333333,0.0
352,25,0.6,90,left,277.56690979003906,0.089385986328125,1,-354.79998779296875,-177.5999755859375,-400.3013333333333,0.0
353,25,0.1,90,left,278.0637741088867,0.010416030883789062,1,-308.0999755859375,68.10000610351562,-400.3013333333333,0.0
354,25,0.0,90,left,229.1114330291748,0.009920120239257812,1,-328.9000244140625,69.29998779296875,-400.3013333333333,0.0
355,25,0.1,270,left,270.2512741088867,0.010055065155029297,1,-343.20001220703125,30.70001220703125,-400.3013333333333,0.0
356,25,0.35,90,left,237.35809326171875,0.009887933731079102,1,-347.0,83.0,-400.3013333333333,0.0
357,25,0.6,270,left,-1.0,-1.0,0,-1.0,-1.0,-400.3013333333333,0.0
358,25,0.6,270,left,234.35020446777344,0.009377002716064453,1,-372.0,-109.5999755859375,-400.3013333333333,0.0
359,25,0.0,270,left,257.9231262207031,0.009997129440307617,1,-323.20001220703125,72.60000610351562,-400.3013333333333,0.0
360,25,0.0,90,left,437.1294975280762,0.010013341903686523,1,-371.9000244140625,-2.20001220703125,-400.3013333333333,0.0
361,25,0.0,270,left,246.5062141418457,0.009920835494995117,1,-366.0999755859375,-69.9000244140625,-400.3013333333333,0.0
362,25,0.2,270,left,57.53731727600098,-1.0,0,-1.0,-1.0,-400.3013333333333,0.0
363,25,0.35,90,left,265.85912704467773,0.013887166976928711,1,-320.0999755859375,-18.29998779296875,-400.3013333333333,0.0
364,25,0.1,90,left,359.0528964996338,0.009920358657836914,1,-378.5,80.79998779296875,-400.3013333333333,0.0
365,25,0.35,90,left,225.18539428710938,0.010416984558105469,1,-293.79998779296875,69.89999389648438,-400.3013333333333,0.0
366,25,0.1,270,left,308.75420570373535,0.011408329010009766,1,-345.5,10.5,-400.3013333333333,0.0
367,25,0.2,270,left,268.3372497558594,0.009922266006469727,1,-315.4000244140625,-113.9000244140625,-400.3013333333333,0.0
368,25,0.35,270,left,221.28987312316895,0.009846687316894531,1,-336.0999755859375,39.399993896484375,-400.3013333333333,0.0
369,25,0.1,270,left,275.07686614990234,0.009920835494995117,1,-335.5,-102.5999755859375,-400.3013333333333,0.0
370,25,0.1,90,left,234.1597080230713,0.009500265121459961,1,-319.70001220703125,-25.5999755859375,-400.3013333333333,0.0
371,25,0.35,90,left,283.4937572479248,0.010542154312133789,1,-336.29998779296875,-40.5999755859375,-400.3013333333333,0.0
372,25,0.6,90,left,-1.0,-1.0,0,-1.0,-1.0,-400.3013333333333,0.0
373,25,0.35,90,left,156.23140335083008,0.04947829246520996,1,-327.4000244140625,-21.0999755859375,-400.3013333333333,0.0
374,25,0.35,90,left,213.91582489013672,0.010233640670776367,1,-307.70001220703125,96.29998779296875,-400.3013333333333,0.0
375,25,0.2,270,left,225.68535804748535,0.010185956954956055,1,-364.4000244140625,-75.79998779296875,-400.3013333333333,0.0
376,25,0.2,270,left,226.47881507873535,0.010088205337524414,1,-328.0,-34.9000244140625,-400.3013333333333,0.0
377,25,0.0,270,left,248.66843223571777,0.010340213775634766,1,-319.4000244140625,34.100006103515625,-400.3013333333333,0.0
378,25,0.2,270,left,203.9191722869873,0.010125398635864258,1,-373.20001220703125,54.5,-400.3013333333333,0.0
379,25,0.0,270,left,240.25344848632812,0.009619712829589844,1,-350.29998779296875,50.29998779296875,-400.3013333333333,0.0
380,25,0.2,90,left,262.2852325439453,0.010248661041259766,1,-358.0999755859375,-30.29998779296875,-400.3013333333333,0.0
381,25,0.35,90,left,367.5551414489746,0.010084390640258789,1,-308.0999755859375,88.10000610351562,-400.3013333333333,0.0
382,25,0.6,90,left,-1.0,-1.0,0,-1.0,-1.0,-400.3013333333333,0.0
383,25,0.1,90,left,215.92378616333008,0.010095834732055664,1,-360.70001220703125,75.60000610351562,-400.3013333333333,0.0
384,25,0.6,270,left,258.71849060058594,0.009569168090820312,1,-319.0999755859375,-105.5999755859375,-400.3013333333333,0.0
385,25,0.6,90,left,278.2905101776123,0.010413408279418945,1,-294.0999755859375,10.70001220703125,-400.3013333333333,0.0
386,25,0.2,90,left,279.14953231811523,0.010406732559204102,1,-328.79998779296875,-83.0,-400.3013333333333,0.0
387,25,0.2,90,left,411.21602058410645,0.010387659072875977,1,-297.9000244140625,-12.29998779296875,-400.3013333333333,0.0
388,25,0.0,270,left,282.93299674987793,0.009920120239257812,1,-345.4000244140625,52.899993896484375,-400.3013333333333,0.0
389,25,0.1,270,left,291.3205623626709,0.009675979614257812,1,-364.9000244140625,-21.29998779296875,-400.3013333333333,0.0
390,25,0.35,90,left,239.65716361999512,0.010020732879638672,1,-319.0,55.70001220703125,-400.3013333333333,0.0
391,25,0.6,90,left,278.76901626586914,0.010113000869750977,1,-338.9000244140625,-49.20001220703125,-400.3013333333333,0.0
392,25,0.35,270,left,275.9873867034912,0.010105609893798828,1,-368.5999755859375,20.70001220703125,-400.3013333333333,0.0
393,25,0.35,90,left,56.27179145812988,-1.0,0,-1.0,-1.0,-400.3013333333333,0.0
394,25,0.1,90,left,230.2844524383545,0.009848594665527344,1,-364.0999755859375,80.89999389648438,-400.3013333333333,0.0
395,25,0.35,270,left,325.4694938659668,0.009984254837036133,1,-308.5999755859375,58.20001220703125,-400.3013333333333,0.0
396,25,0.35,270,left,312.4668598175049,0.010488271713256836,1,-335.70001220703125,39.70001220703125,-400.3013333333333,0.0
397,25,0.1,90,left,232.1760654449463,0.0097198486328125,1,-326.5,73.79998779296875,-400.3013333333333,0.0
398,25,0.2,90,left,256.99663162231445,0.009531021118164062,1,-345.20001220703125,95.10000610351562,-400.3013333333333,0.0
399,25,0.2,270,left,344.4664478302002,0.010065793991088867,1,-341.9000244140625,-109.29998779296875,-400.3013333333333,0.0
400,25,0.1,90,left,300.82035064697266,0.010031461715698242,1,-349.4000244140625,20.29998779296875,-400.3013333333333,0.0
401,25,0.2,90,left,264.2970085144043,0.010084390640258789,1,-359.0999755859375,61.5,-400.3013333333333,0.0
402,25,0.2,90,left,360.0194454193115,0.010070323944091797,1,-319.79998779296875,72.5,-400.3013333333333,0.0
403,25,0.2,90,left,431.29611015319824,0.009998559951782227,1,-305.79998779296875,-46.79998779296875,-400.3013333333333,0.0
404,25,0.1,90,left,-1.0,-1.0,0,-1.0,-1.0,-400.3013333333333,0.0
405,25,0.35,270,left,204.1335105895996,0.010001659393310547,1,-307.70001220703125,47.600006103515625,-400.3013333333333,0.0
406,25,0.0,90,left,315.7963752746582,0.010287761688232422,1,-366.70001220703125,-56.5999755859375,-400.3013333333333,0.0
407,25,0.6,270,left,309.91578102111816,-1.0,0,-1.0,-1.0,-400.3013333333333,0.0
408,25,0.35,90,left,232.5887680053711,0.010568618774414062,1,-385.5,53.20001220703125,-400.3013333333333,0.0
409,25,0.1,90,left,247.941255569458,0.00942230224609375,1,-427.5999755859375,8.20001220703125,-400.3013333333333,0.0
410,25,0.6,270,left,237.34188079833984,0.009684085845947266,1,-351.0999755859375,-60.5999755859375,-400.3013333333333,0.0
411,25,0.6,270,left,251.0204315185547,0.01019144058227539,1,-384.79998779296875,-26.79998779296875,-400.3013333333333,0.0
412,25,0.0,270,left,245.55039405822754,0.010472536087036133,1,-369.0999755859375,11.5999755859375,-400.3013333333333,0.0
413,25,0.6,90,left,335.9856605529785,0.010613679885864258,1,-331.70001220703125,8.4000244140625,-400.3013333333333,0.0
414,25,0.35,90,left,292.9530143737793,0.009946346282958984,1,-325.5999755859375,79.29998779296875,-400.3013333333333,0.0
415,25,0.1,270,left,223.5243320465088,0.00970768928527832,1,-341.79998779296875,65.70001220703125,-400.3013333333333,0.0
416,25,0.2,90,left,233.27898979187012,0.01018214225769043,1,-388.29998779296875,69.29998779296875,-400.3013333333333,0.0
417,25,0.2,90,left,270.9677219390869,0.010066986083984375,1,-370.9000244140625,116.0,-400.3013333333333,0.0
418,25,0.35,270,left,324.8627185821533,0.009979009628295898,1,-324.29998779296875,-23.0,-400.3013333333333,0.0
419,25,0.6,90,left,296.5278625488281,0.010138750076293945,1,-317.9000244140625,65.70001220703125,-400.3013333333333,0.0
420,25,0.2,270,left,254.38761711120605,0.010379791259765625,1,-355.0999755859375,-39.9000244140625,-400.3013333333333,0.0
421,25,0.6,270,left,400.45928955078125,0.009633541107177734,1,-347.0,-18.0999755859375,-400.3013333333333,0.0
422,25,0.6,90,left,-1.0,-1.0,0,-1.0,-1.0,-400.3013333333333,0.0
423,25,0.35,90,left,-1.0,-1.0,0,-1.0,-1.0,-400.3013333333333,0.0
424,25,0.6,270,left,233.778715133667,0.009905815124511719,1,-340.5999755859375,-38.0999755859375,-400.3013333333333,0.0
425,25,0.0,90,left,-1.0,-1.0,0,-1.0,-1.0,-400.3013333333333,0.0
426,25,0.0,270,left,213.91749382019043,0.009693622589111328,1,-366.9000244140625,5.0999755859375,-400.3013333333333,0.0
427,25,0.6,270,left,-1.0,-1.0,0,-1.0,-1.0,-400.3013333333333,0.0
428,25,0.2,270,left,-1.0,-1.0,0,-1.0,-1.0,-400.3013333333333,0.0
429,25,0.1,270,left,281.36348724365234,0.010024547576904297,1,-382.4000244140625,-21.29998779296875,-400.3013333333333,0.0
430,25,0.0,90,left,219.90489959716797,0.009741544723510742,1,-285.0,71.10000610351562,-400.3013333333333,0.0
431,25,0.6,270,left,201.92909240722656,0.009997844696044922,1,-315.5999755859375,53.0,-400.3013333333333,0.0
432,25,0.0,90,left,-1.0,-1.0,0,-1.0,-1.0,-400.3013333333333,0.0
434,25,0.6,90,left,63.98320198059082,-1.0,0,-1.0,-1.0,-400.3013333333333,0.0
435,25,0.0,270,left,-1.0,-1.0,0,-1.0,-1.0,-400.3013333333333,0.0
436,25,0.0,270,left,-1.0,-1.0,0,-1.0,-1.0,-400.3013333333333,0.0
437,25,0.2,270,left,20.184755325317383,0.009726285934448242,1,-437.29998779296875,203.20001220703125,-400.3013333333333,0.0
438,25,0.6,270,left,-1.0,-1.0,0,-1.0,-1.0,-400.3013333333333,0.0
440,25,0.0,90,left,-1.0,-1.0,0,-1.0,-1.0,-400.3013333333333,0.0
441,25,0.0,270,left,-1.0,-1.0,0,-1.0,-1.0,-400.3013333333333,0.0
443,25,0.2,90,left,233.5069179534912,0.009718656539916992,1,-375.4000244140625,45.79998779296875,-400.3013333333333,0.0
444,25,0.0,270,left,-1.0,-1.0,0,-1.0,-1.0,-400.3013333333333,0.0
445,25,0.2,90,left,-1.0,-1.0,0,-1.0,-1.0,-400.3013333333333,0.0
446,25,0.2,90,left,258.27765464782715,0.0102691650390625,1,-383.5999755859375,28.20001220703125,-400.3013333333333,0.0
447,25,0.0,270,left,204.31041717529297,0.00955963134765625,1,-349.70001220703125,30.5,-400.3013333333333,0.0
448,25,0.2,90,left,371.0746765136719,0.00946807861328125,1,-349.5999755859375,66.20001220703125,-400.3013333333333,0.0
