trial_index,trial_start_time,trial_start_tracker_time,speed,coherence,direction,saccade_rt,saccade_duration,correct,saccade_x,saccade_y,saccade_start_x,saccade_start_y,stim_x,stim_y,fix_onset,fix_onset_tracker,stim_onset,stim_onset_tracker,stim_offset,stim_offset_tracker,saccade_onset,saccade_onset_tracker,fix_x,fix_y
2,1758915379.83472,265203052.0,25,0.35,90,255.30362129211426,0.005946636199951172,1,-184.0999755859375,125.5,-83.4000244140625,-45.79998779296875,-200.15066666666664,160.12053333333333,1758915380.0679185,265203499.0,1758915380.8904545,265204108.0,1758915381.1556492,265204373.0,1758915381.1457582,265204363.0,0,0
3,1758915383.289676,265206507.0,25,0.0,90,242.42186546325684,0.0049593448638916016,1,-188.70001220703125,143.10000610351562,-110.4000244140625,-69.29998779296875,-200.15066666666664,160.12053333333333,1758915383.4365833,265206855.0,1758915384.143491,265207361.0,1758915384.3958318,265207613.0,1758915384.385913,265207603.0,0,0
4,1758915386.426171,265209643.0,25,0.1,90,286.8151664733887,0.005527973175048828,1,-178.9000244140625,141.60000610351562,-118.0,-93.70001220703125,-200.15066666666664,160.12053333333333,1758915386.7448812,265210178.0,1758915387.3087423,265210526.0,1758915387.6055276,265210823.0,1758915387.5955575,265210813.0,0,0
5,1758915389.6231575,265212841.0,25,0.0,270,242.33341217041016,0.0056247711181640625,1,-170.0999755859375,140.29998779296875,-145.9000244140625,-128.20001220703125,-200.15066666666664,160.12053333333333,1758915389.8087373,265213241.0,1758915390.7030928,265213921.0,1758915390.955584,265214173.0,1758915390.9454262,265214163.0,0,0
6,1758915393.0829806,265216301.0,25,0.6,270,252.28142738342285,0.005639553070068359,1,-205.20001220703125,136.39999389648438,-153.9000244140625,-95.79998779296875,-200.15066666666664,160.12053333333333,1758915393.306868,265216725.0,1758915394.0629177,265217281.0,1758915394.3252945,265217543.0,1758915394.3151991,265217533.0,0,0
7,1758915396.7766156,265219994.0,25,0.35,90,308.4390163421631,0.00439143180847168,1,-201.4000244140625,142.70001220703125,-207.70001220703125,-127.20001220703125,-200.15066666666664,160.12053333333333,1758915396.9757576,265220406.0,1758915397.5066934,265220724.0,1758915397.825077,265221043.0,1758915397.8151324,265221033.0,0,0
8,1758915400.3126705,265223530.0,25,0.1,270,269.7141170501709,0.0057451725006103516,1,-190.79998779296875,126.39999389648438,-152.70001220703125,-111.20001220703125,-200.15066666666664,160.12053333333333,1758915400.565498,265223999.0,1758915401.2155652,265224433.0,1758915401.4950628,265224713.0,1758915401.4852793,265224703.0,0,0
9,1758915403.8175564,265227035.0,25,0.0,270,249.73821640014648,0.0044324398040771484,1,-170.20001220703125,150.60000610351562,-96.79998779296875,-87.10000610351562,-200.15066666666664,160.12053333333333,1758915404.026567,265227445.0,1758915404.8155894,265228033.0,1758915405.0749285,265228293.0,1758915405.0653276,265228283.0,0,0
10,1758915407.4484148,265230665.0,25,0.0,270,334.6362113952637,0.005097627639770508,1,-171.5,166.10000610351562,-127.0999755859375,-113.10000610351562,-200.15066666666664,160.12053333333333,1758915407.5359962,265230961.0,1758915408.42012,265231638.0,1758915408.764947,265231983.0,1758915408.7547562,265231973.0,0,0
11,1758915411.1441505,265234362.0,25,0.2,270,243.8342571258545,0.0053730010986328125,1,-176.0999755859375,150.29998779296875,-132.5,-107.10000610351562,-200.15066666666664,160.12053333333333,1758915411.2096992,265234632.0,1758915412.150836,265235369.0,1758915412.405041,265235623.0,1758915412.3946702,265235613.0,0,0
12,1758915414.7166235,265237934.0,25,0.2,90,304.5177459716797,0.00572514533996582,1,-208.0,155.20001220703125,-109.5999755859375,-79.39999389648438,-200.15066666666664,160.12053333333333,1758915414.8547523,265238288.0,1758915415.5103285,265238728.0,1758915415.8246205,265239042.0,1758915415.8148463,265239032.0,0,0
13,1758915418.4636695,265241580.0,25,0.1,270,322.1321105957031,0.004828453063964844,1,-194.9000244140625,136.70001220703125,-87.29998779296875,-65.5,-200.15066666666664,160.12053333333333,1758915418.7400768,265242166.0,1758915419.612445,265242830.0,1758915419.9444673,265243160.0,1758915419.9345772,265243150.0,0,0
14,1758915422.3788583,265245597.0,25,0.0,90,301.0718822479248,0.0029764175415039062,1,-180.29998779296875,128.5,-102.79998779296875,-66.70001220703125,-200.15066666666664,160.12053333333333,1758915422.862551,265246290.0,1758915423.4948905,265246712.0,1758915423.8043952,265247020.0,1758915423.7959623,265247011.0,0,0
15,1758915426.245705,265249464.0,25,0.0,270,319.3542957305908,0.004933595657348633,1,-172.9000244140625,153.70001220703125,-149.4000244140625,-102.39999389648438,-200.15066666666664,160.12053333333333,1758915426.437657,265249865.0,1758915427.0046785,265250222.0,1758915427.3344498,265250551.0,1758915427.3240328,265250540.0,0,0
16,1758915429.6753054,265252892.0,25,0.0,90,285.2003574371338,0.0050890445709228516,1,-184.5,139.10000610351562,-145.0999755859375,-124.79998779296875,-200.15066666666664,160.12053333333333,1758915430.0146928,265253441.0,1758915430.7090118,265253927.0,1758915431.004262,265254220.0,1758915430.9942122,265254209.0,0,0
17,1758915433.4193819,265256637.0,25,0.2,270,342.897891998291,0.004959821701049805,1,-218.5,161.39999389648438,-114.0999755859375,-90.70001220703125,-200.15066666666664,160.12053333333333,1758915433.5911827,265257018.0,1758915434.1109128,265257328.0,1758915434.4637306,265257677.0,1758915434.4538107,265257667.0,0,0
18,1758915437.0217764,265260235.0,25,0.0,90,258.74948501586914,0.004952192306518555,1,-172.0,141.20001220703125,-149.5999755859375,-126.29998779296875,-200.15066666666664,160.12053333333333,1758915437.1717565,265260599.0,1758915437.9450934,265261163.0,1758915438.2138445,265261432.0,1758915438.2038429,265261422.0,0,0
19,1758915440.6146734,265263831.0,25,0.0,90,282.02152252197266,0.0055599212646484375,1,-184.0,171.70001220703125,-70.4000244140625,-93.29998779296875,-200.15066666666664,160.12053333333333,1758915440.7510753,265264177.0,1758915441.5715837,265264789.0,1758915441.863788,265265080.0,1758915441.8536053,265265070.0,0,0
20,1758915444.4113908,265267629.0,25,0.2,270,216.09115600585938,0.004960536956787109,1,-158.0999755859375,141.89999389648438,-55.29998779296875,-60.0,-200.15066666666664,160.12053333333333,1758915444.58847,265268497.0,1758915446.0079002,265269226.0,1758915446.2334497,265269451.0,1758915446.2239914,265269442.0,0,0
21,1758915448.6184702,265271836.0,25,0.1,90,214.08486366271973,0.004463911056518555,1,-171.29998779296875,150.10000610351562,-110.29998779296875,-97.39999389648438,-200.15066666666664,160.12053333333333,1758915448.7910619,265272220.0,1758915449.5994256,265272817.0,1758915449.8234303,265273041.0,1758915449.8135104,265273031.0,0,0
22,1758915452.364722,265275571.0,25,0.35,270,257.7071189880371,0.004996776580810547,1,-195.5,144.39999389648438,-122.29998779296875,-79.5,-200.15066666666664,160.12053333333333,1758915452.3662035,265275795.0,1758915452.9556105,265276173.0,1758915453.2235556,265276441.0,1758915453.2133176,265276431.0,0,0
23,1758915455.5788336,265278796.0,25,0.1,270,261.6541385650635,0.0049359798431396484,1,-209.4000244140625,156.70001220703125,-103.9000244140625,-81.60000610351562,-200.15066666666664,160.12053333333333,1758915455.8997514,265279326.0,1758915456.851787,265280070.0,1758915457.1233616,265280341.0,1758915457.1134412,265280330.0,0,0
24,1758915459.6371365,265282855.0,25,0.35,90,215.32607078552246,0.004960060119628906,1,-180.9000244140625,170.70001220703125,-127.79998779296875,-119.39999389648438,-200.15066666666664,160.12053333333333,1758915459.8936262,265283325.0,1758915460.867864,265284085.0,1758915461.09311,265284311.0,1758915461.08319,265284301.0,0,0
25,1758915463.5180278,265286736.0,25,0.2,90,248.05378913879395,0.015376091003417969,1,-215.0999755859375,164.29998779296875,-58.20001220703125,-59.399993896484375,-200.15066666666664,160.12053333333333,1758915464.0062387,265287237.0,1758915464.754802,265287973.0,1758915465.0231674,265288236.0,1758915465.0028558,265288219.0,0,0
26,1758915467.4788227,265290697.0,25,0.35,90,227.13875770568848,0.0054531097412109375,1,-196.79998779296875,180.70001220703125,-194.79998779296875,-150.0,-200.15066666666664,160.12053333333333,1758915467.6280782,265291056.0,1758915468.325683,265291543.0,1758915468.5627558,265291781.0,1758915468.5528219,265291771.0,0,0
27,1758915471.0659635,265294284.0,25,0.2,90,314.2657279968262,0.005926609039306641,1,-170.70001220703125,137.89999389648438,-117.0,-85.10000610351562,-200.15066666666664,160.12053333333333,1758915471.217363,265294642.0,1758915471.7386582,265294957.0,1758915472.0628443,265295280.0,1758915472.052924,265295270.0,0,0
28,1758915474.4058704,265297624.0,25,0.6,270,269.51098442077637,0.005266427993774414,1,-209.0,132.29998779296875,-105.0,-68.60000610351562,-200.15066666666664,160.12053333333333,1758915474.6621673,265298089.0,1758915475.2031395,265298421.0,1758915475.4825456,265298699.0,1758915475.4726505,265298689.0,0,0
29,1758915477.8753433,265301093.0,25,0.0,90,203.22442054748535,0.0054340362548828125,1,-192.4000244140625,152.70001220703125,-128.0,-111.89999389648438,-200.15066666666664,160.12053333333333,1758915478.047071,265301475.0,1758915478.9893346,265302206.0,1758915479.2026994,265302420.0,1758915479.192559,265302410.0,0,0
30,1758915481.6387334,265304857.0,25,0.1,90,265.5336856842041,0.004463911056518555,1,-173.0,147.89999389648438,-165.4000244140625,-133.0,-200.15066666666664,160.12053333333333,1758915481.7486677,265305161.0,1758915482.2268414,265305444.0,1758915482.502295,265305720.0,1758915482.4923751,265305709.0,0,0
31,1758915484.86911,265308087.0,25,0.1,90,216.4614200592041,0.0059244632720947266,1,-185.29998779296875,162.79998779296875,-74.20001220703125,-77.20001220703125,-200.15066666666664,160.12053333333333,1758915485.1254184,265308552.0,1758915485.9161153,265309134.0,1758915486.1424975,265309360.0,1758915486.1325767,265309350.0,0,0
32,1758915488.603383,265311821.0,25,0.0,90,236.81092262268066,0.004930257797241211,1,-126.29998779296875,94.89999389648438,-126.29998779296875,-94.89999389648438,-200.15066666666664,160.12053333333333,1758915488.62637,265312056.0,1758915489.2151423,265312431.0,1758915489.4623716,265312680.0,1758915489.4519532,265312670.0,0,0
33,1758915491.8829203,265315101.0,25,0.2,90,254.65893745422363,0.005192756652832031,1,-189.29998779296875,147.89999389648438,-155.79998779296875,-119.29998779296875,-200.15066666666664,160.12053333333333,1758915492.0545483,265315483.0,1758915492.6473513,265315865.0,1758915492.9119234,265316128.0,1758915492.9020102,265316118.0,0,0
34,1758915495.448388,265318666.0,25,0.6,270,203.688383102417,0.00592494010925293,1,-206.5,156.60000610351562,-75.70001220703125,-62.20001220703125,-200.15066666666664,160.12053333333333,1758915495.9137397,265319342.0,1758915496.8385546,265320056.0,1758915497.0521631,265320270.0,1758915497.042243,265320260.0,0,0
35,1758915499.5586307,265322777.0,25,0.35,270,217.9584503173828,0.005079984664916992,1,-196.29998779296875,167.10000610351562,-168.4000244140625,-128.0,-200.15066666666664,160.12053333333333,1758915499.751407,265323181.0,1758915500.613823,265323832.0,1758915500.841885,265324060.0,1758915500.8317814,265324050.0,0,0
36,1758915503.217461,265326435.0,25,0.0,90,213.3467197418213,0.004790306091308594,1,-180.5999755859375,147.29998779296875,-163.29998779296875,-131.70001220703125,-200.15066666666664,160.12053333333333,1758915503.2209249,265326640.0,1758915504.048254,265327266.0,1758915504.271848,265327489.0,1758915504.2616007,265327479.0,0,0
37,1758915506.7951827,265330013.0,25,0.6,90,234.71450805664062,0.0047914981842041016,1,-195.20001220703125,142.70001220703125,-82.0,-72.0,-200.15066666666664,160.12053333333333,1758915506.9752464,265330397.0,1758915507.456922,265330674.0,1758915507.7015362,265330919.0,1758915507.6916366,265330910.0,0,0
38,1758915510.120732,265333338.0,25,0.35,90,-1.0,-1.0,0,-1.0,-1.0,-1.0,-1.0,-200.15066666666664,160.12053333333333,1758915510.499119,265333938.0,-1.0,-1.0,-1.0,-1.0,-1.0,-1.0,0,0
40,1758915539.3080344,265362526.0,25,0.35,90,260.6329917907715,0.0057370662689208984,1,-197.79998779296875,147.89999389648438,-173.20001220703125,-134.29998779296875,-200.15066666666664,160.12053333333333,1758915539.622578,265363059.0,1758915540.4002173,265363618.0,1758915540.6706235,265363889.0,1758915540.6608503,265363878.0,0,0
41,1758915543.2125046,265366430.0,25,0.35,270,248.4734058380127,0.005456686019897461,1,-186.5999755859375,174.29998779296875,-140.70001220703125,-115.60000610351562,-200.15066666666664,160.12053333333333,1758915543.4895005,265366927.0,1758915544.3820992,265367600.0,1758915544.6404727,265367858.0,1758915544.6305726,265367848.0,0,0
42,1758915547.149785,265370368.0,25,0.2,270,217.56434440612793,0.004965543746948242,1,-164.79998779296875,128.39999389648438,-112.5999755859375,-77.79998779296875,-200.15066666666664,160.12053333333333,1758915547.3779452,265370799.0,1758915548.2427008,265371460.0,1758915548.4701922,265371679.0,1758915548.4602652,265371668.0,0,0
43,1758915551.082749,265374300.0,25,0.1,270,259.6628665924072,0.005772829055786133,1,-159.9000244140625,141.0,-69.5,-67.89999389648438,-200.15066666666664,160.12053333333333,1758915551.088218,265374508.0,1758915551.7008986,265374919.0,1758915551.970388,265375188.0,1758915551.9605615,265375178.0,0,0
44,1758915554.4442484,265377662.0,25,0.0,90,240.88454246520996,0.005815029144287109,1,-190.79998779296875,146.70001220703125,-79.0,-64.29998779296875,-200.15066666666664,160.12053333333333,1758915554.6310658,265378069.0,1758915555.389365,265378607.0,1758915555.6400723,265378858.0,1758915555.6302495,265378848.0,0,0
